File: data/ReportRaw/Resin_TXT/Unknown_Resin_15Bi/Tensile_Test_02.txt
Program Started: Thu, Jul 18, 2024	11:47:51 AM	System: µTS4
Test Notes:

User displacement limits active. Low limit -20.000E-3 m, high limit 20.000E-3 m.
User load limits active. Low limit -1.600E+3 N, high limit 1.600E+3 N.

No closed loop control sensors in this test.

Test Segments:
 1. Ramp in Drive Control, +5.00E-3m Amplitude, 10.00E-6 m/s Speed. Sampling at 20.000 Hz, Lowpass Filter Cutoff of 100.000 Hz

Specimen Thickness (m): 	1.500E-3
Specimen Width (m): 	1.930E-3
Specimen Diameter (m): 	0.000E+0
Specimen Area (m^2): 	2.895E-6
Specimen Length (m): 	5.000E-3

Test Started: Thu, Jul 18, 2024	1:19:27 PM
Time (s)	LCFS1600 (N)	LCW1600 (N)	ECATENC (m)	SpecTemp (C)	AirTemp (C)	OutletTemp (C)	JTemp1600 (C)	GTemp1600 (C)	CUR (A)	Ve (V)	Trigger (#)
0.0000000000E+0	0.0689161	-0.0283497	-1.13191e-16	23.5231	23.5551	23.491	32.6062	0.483825	0.0339475	10.1439	-1
0.45	0.704174	0.507112	3.83135e-06	23.5289	23.5467	23.5111	32.6068	0.48558	0.22286	10.1437	-1
0.9	1.07138	0.867576	8.31441e-06	23.5285	23.5853	23.4717	32.6067	0.485141	0.25495	10.1436	-1
1.35	1.15162	1.08557	1.2828e-05	23.5176	23.5523	23.4828	32.607	0.484123	0.273593	10.1439	-1
1.8	1.39559	1.32884	1.73136e-05	23.5122	23.5489	23.4755	32.6064	0.484293	0.310388	10.1437	-1
2.25	1.72856	1.54883	2.18167e-05	23.5177	23.5461	23.4893	32.6056	0.484267	0.266347	10.1441	-1
2.7	1.9161	1.80277	2.63156e-05	23.5088	23.5297	23.4878	32.6057	0.484557	0.2213	10.1438	-1
3.15	2.20096	2.04929	3.08023e-05	23.5202	23.5431	23.4972	32.6075	0.484636	0.251866	10.144	-1
3.6	2.40921	2.32144	3.5308e-05	23.4999	23.5393	23.4606	32.6073	0.484487	0.303398	10.1441	-1
4.05	2.62819	2.58365	3.97852e-05	23.5228	23.5496	23.496	32.6052	0.48455	0.384095	10.1438	-1
4.5	3.00971	2.88008	4.43083e-05	23.5181	23.5409	23.4954	32.6068	0.48458	0.392254	10.1441	-1
4.95	3.27529	3.1815	4.8821e-05	23.5242	23.5468	23.5016	32.6071	0.484868	0.389242	10.1439	-1
5.4	3.57151	3.46876	5.33233e-05	23.5277	23.5506	23.5048	32.6077	0.484944	0.334545	10.1443	-1
5.85	3.83596	3.71451	5.78272e-05	23.5087	23.534	23.4834	32.6068	0.484508	0.357865	10.1441	-1
6.3	4.01729	3.87914	6.22957e-05	23.526	23.5615	23.4906	32.6057	0.484835	0.441579	10.144	-1
6.75	4.32108	4.19885	6.6803e-05	23.5205	23.5581	23.4829	32.6079	0.48508	0.436835	10.1439	-1
7.2	4.52055	4.48602	7.1324e-05	23.5187	23.5396	23.4977	32.6063	0.484926	0.423078	10.1442	-1
7.65	4.93734	4.77671	7.58188e-05	23.5261	23.5428	23.5093	32.607	0.484908	0.35614	10.1442	-1
8.1	5.21863	5.08355	8.0305e-05	23.514	23.5478	23.4802	32.6075	0.484402	0.373715	10.1439	-1
8.55	5.48042	5.3972	8.48138e-05	23.5298	23.5574	23.5023	32.6068	0.484287	0.379863	10.1443	-1
9	5.86132	5.73268	8.93067e-05	23.5128	23.5351	23.4905	32.608	0.484535	0.399146	10.1442	-1
9.45	6.19628	6.04654	9.38214e-05	23.5249	23.545	23.5049	32.6053	0.484387	0.397826	10.1441	-1
9.9	6.53416	6.37688	9.83219e-05	23.5249	23.5489	23.5008	32.6053	0.484705	0.320198	10.1442	-1
10.35	6.79843	6.7103	0.000102805	23.514	23.5378	23.4901	32.6071	0.48413	0.298628	10.1442	-1
10.8	7.16808	7.02707	0.000107292	23.5125	23.5469	23.478	32.6064	0.483926	0.292795	10.1444	-1
11.25	7.49424	7.33854	0.000111795	23.5192	23.552	23.4865	32.6088	0.483889	0.367077	10.1443	-1
11.7	7.67991	7.62808	0.000116317	23.5331	23.5583	23.5078	32.6063	0.484578	0.368305	10.1446	-1
12.15	7.97163	7.91314	0.000120798	23.5204	23.5344	23.5064	32.6071	0.483405	0.295873	10.1437	-1
12.6	8.24379	8.18517	0.000125311	23.5098	23.5368	23.4828	32.6082	0.484952	0.235335	10.1442	-1
13.05	8.6471	8.45632	0.0001298	23.526	23.5493	23.5027	32.6078	0.484831	0.267052	10.1444	-1
13.5	8.76731	8.71436	0.00013428	23.525	23.5483	23.5017	32.607	0.484337	0.332991	10.1439	-1
13.95	8.98918	8.9777	0.000138798	23.5471	23.5712	23.523	32.6079	0.484334	0.330698	10.1445	-1
14.4	9.43869	9.29245	0.000143314	23.5179	23.5407	23.4951	32.6063	0.484377	0.296815	10.1439	-1
14.85	9.7636	9.59113	0.000147797	23.5204	23.5499	23.491	32.6068	0.483775	0.244415	10.1441	-1
15.3	10.0862	9.91535	0.000152259	23.5178	23.5448	23.4908	32.6079	0.483348	0.25704	10.1444	-1
15.75	10.4344	10.2383	0.000156779	23.5384	23.5573	23.5195	32.606	0.483276	0.303996	10.1444	-1
16.2	10.7102	10.5547	0.000161296	23.5201	23.5436	23.4966	32.6067	0.484495	0.347009	10.1444	-1
16.65	11.0384	10.8851	0.00016578	23.5176	23.5444	23.4909	32.607	0.483536	0.332657	10.1445	-1
17.1	11.3261	11.2562	0.00017028	23.5197	23.5391	23.5003	32.6073	0.483029	0.257252	10.1448	-1
17.55	11.7488	11.6733	0.000174775	23.52	23.5461	23.4939	32.6064	0.484492	0.265292	10.1448	-1
18	12.2976	12.0978	0.000179285	23.5345	23.5703	23.4987	32.6067	0.484166	0.289705	10.1444	-1
18.45	12.6926	12.5613	0.000183794	23.5363	23.5594	23.5133	32.6087	0.484095	0.311016	10.1448	-1
18.9	13.1432	13.0222	0.000188264	23.52	23.5436	23.4964	32.6078	0.484331	0.247916	10.1445	-1
19.35	13.6581	13.4897	0.000192783	23.5315	23.5562	23.5069	32.6071	0.483543	0.209875	10.1445	-1
19.8	14.0139	13.9487	0.000197296	23.5229	23.5406	23.5052	32.6073	0.483369	0.194828	10.1445	-1
20.25	14.565	14.433	0.000201765	23.5259	23.5414	23.5104	32.6068	0.483404	0.230008	10.1448	-1
20.7	15.0309	14.9208	0.000206257	23.519	23.558	23.4799	32.6077	0.483729	0.297981	10.1447	-1
21.15	15.4564	15.3863	0.000210787	23.5305	23.5589	23.5022	32.6087	0.484061	0.322082	10.1445	-1
21.6	15.9887	15.8926	0.000215303	23.5299	23.5638	23.4961	32.6075	0.484109	0.303095	10.1447	-1
22.05	16.5705	16.3637	0.00021976	23.5181	23.5521	23.484	32.6062	0.483481	0.28426	10.1447	-1
22.5	17.0769	16.8644	0.000224254	23.5196	23.5428	23.4964	32.6071	0.483403	0.308938	10.1446	-1
22.95	17.5553	17.3827	0.000228777	23.5187	23.5514	23.4859	32.6085	0.483615	0.303011	10.1447	-1
23.4	18.0118	17.9081	0.000233258	23.5318	23.5498	23.5137	32.6079	0.483739	0.375356	10.1447	-1
23.85	18.4642	18.39	0.000237756	23.5181	23.5488	23.4875	32.6074	0.48326	0.303599	10.1445	-1
24.3	18.9787	18.8973	0.000242252	23.5235	23.5549	23.4922	32.6073	0.484339	0.28503	10.1448	-1
24.75	19.4608	19.4214	0.000246771	23.5301	23.5614	23.4988	32.6081	0.483416	0.267378	10.1446	-1
25.2	20.0034	19.9347	0.000251277	23.5284	23.5563	23.5005	32.608	0.483955	0.310928	10.1449	-1
25.65	20.59	20.4828	0.000255749	23.531	23.5615	23.5006	32.6081	0.483935	0.343921	10.1448	-1
26.1	21.1219	21.0278	0.000260273	23.515	23.5473	23.4827	32.6074	0.483558	0.296261	10.1449	-1
26.55	21.6423	21.542	0.00026476	23.5283	23.5597	23.497	32.6075	0.484171	0.224655	10.1448	-1
27	22.238	22.0897	0.000269253	23.5317	23.5689	23.4946	32.6076	0.484267	0.249607	10.1451	-1
27.45	22.7376	22.5995	0.000273738	23.5233	23.5513	23.4954	32.608	0.482922	0.278138	10.1448	-1
27.9	23.1577	23.1363	0.000278262	23.5288	23.5558	23.5018	32.6071	0.483688	0.301443	10.1449	-1
28.35	23.7923	23.6247	0.000282763	23.5229	23.5516	23.4941	32.6067	0.483076	0.260029	10.1447	-1
28.8	24.2166	24.1593	0.000287263	23.5363	23.5564	23.5162	32.608	0.482818	0.298798	10.145	-1
29.25	24.8121	24.7063	0.000291772	23.5267	23.5545	23.4989	32.6088	0.483451	0.217006	10.1454	-1
29.7	25.3572	25.2426	0.000296248	23.528	23.5473	23.5086	32.6082	0.482884	0.269399	10.1454	-1
30.15	25.7923	25.7763	0.000300733	23.5227	23.5513	23.494	32.6068	0.483299	0.317473	10.1448	-1
30.6	26.3603	26.3218	0.000305265	23.5214	23.5456	23.4972	32.6083	0.483144	0.333779	10.1454	-1
31.05	27.0232	26.8628	0.000309756	23.5238	23.5506	23.4969	32.6077	0.483846	0.293037	10.145	-1
31.5	27.5765	27.4169	0.000314237	23.5208	23.5443	23.4974	32.6099	0.483072	0.284856	10.1452	-1
31.95	28.1708	27.9659	0.000318748	23.5086	23.5231	23.494	32.6068	0.483554	0.30207	10.1454	-1
32.4	28.6427	28.5086	0.00032326	23.5115	23.535	23.4881	32.6078	0.483072	0.364169	10.1451	-1
32.85	29.0855	29.0777	0.000327737	23.5197	23.5502	23.4892	32.6089	0.483829	0.389984	10.1446	-1
33.3	29.6979	29.6231	0.00033225	23.5267	23.5437	23.5098	32.6077	0.483489	0.388119	10.1451	-1
33.75	30.3235	30.1537	0.000336739	23.5195	23.5388	23.5001	32.6078	0.483465	0.293743	10.1454	-1
34.2	30.7591	30.6177	0.000341253	23.527	23.5475	23.5065	32.608	0.483913	0.274707	10.1452	-1
34.65	31.4456	31.2616	0.000345737	23.5143	23.5334	23.4952	32.6071	0.483667	0.302103	10.1459	-1
35.1	31.9637	Inf	0.000350221	23.5291	23.5486	23.5096	32.6102	0.481389	0.348997	10.1453	-1
35.55	32.6053	Inf	0.000354745	23.5275	23.5593	23.4958	32.6083	0.482241	0.370893	10.1453	-1
36	33.322	Inf	0.000359253	23.5058	23.5376	23.4741	32.6084	0.483462	0.306959	10.1455	-1
36.45	33.8155	Inf	0.00036374	23.5219	23.5525	23.4912	32.6075	0.483254	0.250624	10.1453	-1
36.9	34.2886	Inf	0.000368245	23.5324	23.5497	23.515	32.6072	0.482664	0.27822	10.1454	-1
37.35	34.9114	Inf	0.000372737	23.5265	23.554	23.4991	32.6094	0.48321	0.347154	10.1457	-1
37.8	35.3827	Inf	0.000377233	23.5322	23.5624	23.502	32.6092	0.483435	0.347756	10.1454	-1
38.25	36.1499	Inf	0.00038175	23.5317	23.5552	23.5083	32.6088	0.483578	0.302899	10.1455	-1
38.7	36.6087	Inf	0.000386253	23.5296	23.5532	23.506	32.6085	0.482786	0.293957	10.1458	-1
39.15	37.3254	Inf	0.00039075	23.5133	23.5351	23.4916	32.6083	0.483242	0.320251	10.1457	-1
39.6	37.851	Inf	0.000395229	23.5247	23.5573	23.492	32.6081	0.483324	0.37115	10.1458	-1
40.05	38.4043	Inf	0.000399728	23.5138	23.5436	23.4841	32.6089	0.481973	0.374924	10.1459	-1
40.5	39.0061	Inf	0.000404227	23.5134	23.537	23.4898	32.6087	0.482697	0.371522	10.1457	-1
40.95	39.6868	Inf	0.000408747	23.5161	23.5442	23.4879	32.6093	0.482667	0.341294	10.1458	-1
41.4	40.3672	Inf	0.000413225	23.525	23.5559	23.4941	32.6074	0.48274	0.307039	10.1461	-1
41.85	40.9981	Inf	0.000417709	23.5333	23.5605	23.5061	32.6093	0.482686	0.391761	10.1459	-1
42.3	41.6359	Inf	0.000422241	23.5151	23.5357	23.4945	32.609	0.483575	0.381891	10.1457	-1
42.75	41.9014	Inf	0.000426755	23.5243	23.5426	23.5059	32.6092	0.482253	0.331351	10.1456	-1
43.2	42.4697	Inf	0.000431244	23.5127	23.5404	23.485	32.6085	0.482883	0.304836	10.1454	-1
43.65	42.8313	Inf	0.000435722	23.5162	23.5478	23.4847	32.6071	0.482961	0.280474	10.1457	-1
44.1	43.2877	Inf	0.000440208	23.5263	23.5522	23.5004	32.6078	0.482621	0.325877	10.1456	-1
44.55	43.5816	Inf	0.000444712	23.528	23.5589	23.4972	32.6093	0.482493	0.365974	10.1456	-1
45	43.8898	Inf	0.000449221	23.5223	23.5414	23.5032	32.6079	0.483246	0.371816	10.1457	-1
45.45	44.2598	Inf	0.000453724	23.5204	23.5488	23.492	32.6093	0.483053	0.252169	10.146	-1
45.9	44.6783	Inf	0.000458236	23.5198	23.5443	23.4953	32.6089	0.4827	0.274656	10.1458	-1
46.35	45.1313	Inf	0.000462709	23.5236	23.5523	23.4949	32.6089	0.48219	0.285585	10.1456	-1
46.8	45.6981	Inf	0.000467205	23.5211	23.5577	23.4845	32.6093	0.483232	0.304515	10.1457	-1
47.25	46.0072	Inf	0.000471717	23.524	23.5539	23.4942	32.6082	0.482873	0.312887	10.1457	-1
47.7	46.4913	Inf	0.00047622	23.5189	23.5542	23.4836	32.609	0.482829	0.263607	10.1461	-1
48.15	47.0694	Inf	0.000480714	23.5255	23.5523	23.4986	32.6091	0.482438	0.255186	10.1458	-1
48.6	47.5851	Inf	0.000485212	23.5201	23.5401	23.5001	32.6083	0.482394	0.281105	10.146	-1
49.05	48.0822	Inf	0.000489697	23.5206	23.5503	23.4909	32.6088	0.482963	0.346478	10.1457	-1
49.5	48.3452	Inf	0.000494208	23.5175	23.5445	23.4904	32.6093	0.482278	0.358026	10.1457	-1
49.95	48.6536	Inf	0.000498714	23.5201	23.5507	23.4895	32.6087	0.48263	0.345759	10.1454	-1
50.4	49.0863	Inf	0.000503224	23.5197	23.547	23.4924	32.6108	0.482796	0.327078	10.146	-1
50.85	49.5628	Inf	0.00050771	23.5203	23.5527	23.4878	32.6085	0.482287	0.290436	10.1455	-1
51.3	49.8629	Inf	0.000512178	23.5244	23.5574	23.4913	32.6089	0.482105	0.308734	10.1459	-1
51.75	50.3682	Inf	0.00051671	23.5104	23.534	23.4867	32.6071	0.481593	0.325273	10.1457	-1
52.2	50.8542	Inf	0.000521216	23.5344	23.5649	23.504	32.6083	0.482153	0.281766	10.1459	-1
52.65	51.3055	Inf	0.000525712	23.5393	23.5624	23.5163	32.6088	0.482995	0.210685	10.1458	-1
53.1	51.8679	Inf	0.000530192	23.5268	23.5457	23.5079	32.6072	0.482716	0.191984	10.146	-1
53.55	52.2254	Inf	0.000534689	23.5314	23.5606	23.5021	32.6104	0.482286	0.234408	10.1462	-1
54	52.8046	Inf	0.00053919	23.5222	23.5484	23.4959	32.609	0.482706	0.285692	10.146	-1
54.45	53.1213	Inf	0.000543692	23.519	23.5382	23.4998	32.6101	0.482941	0.339647	10.1456	-1
54.9	53.4833	Inf	0.000548197	23.5278	23.5453	23.5102	32.6089	0.481706	0.292209	10.1458	-1
55.35	54.0835	Inf	0.000552708	23.5243	23.5533	23.4953	32.6101	0.482288	0.289256	10.1459	-1
55.8	54.4142	Inf	0.000557191	23.5324	23.562	23.5029	32.6103	0.483375	0.308505	10.1456	-1
56.25	54.8046	Inf	0.000561688	23.5231	23.5365	23.5096	32.6094	0.48271	0.328288	10.1453	-1
56.7	55.4055	Inf	0.000566187	23.529	23.5474	23.5107	32.6096	0.482104	0.359671	10.1455	-1
57.15	55.7908	Inf	0.000570702	23.5426	23.5643	23.5209	32.607	0.481417	0.300166	10.1456	-1
57.6	56.2025	Inf	0.000575189	23.522	23.542	23.5019	32.6103	0.481503	0.274986	10.1458	-1
58.05	56.8037	Inf	0.000579682	23.5302	23.5553	23.5051	32.6092	0.482763	0.236078	10.1458	-1
58.5	57.27	Inf	0.00058419	23.517	23.5389	23.495	32.609	0.482337	0.287147	10.1457	-1
58.95	57.7594	Inf	0.00058868	23.5295	23.5605	23.4985	32.6089	0.482133	0.311987	10.1458	-1
59.4	58.2734	Inf	0.000593196	23.5304	23.5598	23.501	32.61	0.48215	0.338101	10.146	-1
59.85	58.85	Inf	0.000597697	23.5119	23.5365	23.4873	32.6091	0.48271	0.278909	10.1459	-1
60.3	59.3951	Inf	0.000602217	23.52	23.5547	23.4853	32.6115	0.482952	0.282153	10.1458	-1
60.75	59.9267	Inf	0.000606681	23.5312	23.565	23.4974	32.6097	0.482281	0.273427	10.1459	-1
61.2	60.34	Inf	0.000611168	23.5402	23.5635	23.5169	32.6118	0.482203	0.318135	10.1455	-1
61.65	60.9121	Inf	0.000615692	23.5235	23.548	23.499	32.6095	0.482743	0.315971	10.1454	-1
62.1	61.4289	Inf	0.000620206	23.5314	23.5676	23.4951	32.6091	0.482089	0.283211	10.1456	-1
62.55	61.8419	Inf	0.000624674	23.5329	23.5646	23.5012	32.6102	0.482841	0.263921	10.1455	-1
63	62.4765	Inf	0.000629167	23.5254	23.5572	23.4936	32.6103	0.482013	0.259094	10.1456	-1
63.45	63.077	Inf	0.000633661	23.5291	23.5588	23.4995	32.6093	0.48171	0.303304	10.1455	-1
63.9	63.6338	Inf	0.000638182	23.5163	23.5451	23.4875	32.6105	0.481825	0.383177	10.1457	-1
64.35	64.2281	Inf	0.000642689	23.5218	23.5516	23.4919	32.6103	0.481959	0.337975	10.1455	-1
64.8	64.9393	Inf	0.000647196	23.5094	23.5398	23.479	32.6101	0.482004	0.310768	10.1456	-1
65.25	65.6375	Inf	0.000651671	23.5281	23.5468	23.5095	32.6102	0.481228	0.328778	10.1457	-1
65.7	66.477	Inf	0.000656175	23.5396	23.5586	23.5206	32.6108	0.481967	0.375003	10.1456	-1
66.15	67.042	Inf	0.000660663	23.5329	23.5563	23.5095	32.6104	0.482511	0.408758	10.1454	-1
66.6	67.6453	Inf	0.000665189	23.5314	23.5565	23.5062	32.6119	0.481296	0.362931	10.1453	-1
67.05	68.2744	Inf	0.000669692	23.5149	23.5478	23.482	32.611	0.481143	0.329916	10.1458	-1
67.5	68.8761	Inf	0.000674167	23.5226	23.5413	23.504	32.6108	0.482432	0.277465	10.1457	-1
67.95	69.4982	Inf	0.000678663	23.5364	23.5613	23.5114	32.611	0.482238	0.347666	10.1456	-1
68.4	69.9931	Inf	0.000683158	23.5345	23.5571	23.5119	32.6093	0.481384	0.36439	10.1454	-1
68.85	70.6671	Inf	0.000687681	23.5277	23.5576	23.4977	32.6101	0.481654	0.382067	10.1454	-1
69.3	71.3947	Inf	0.00069218	23.5133	23.5464	23.4802	32.6102	0.481665	0.345157	10.1452	-1
69.75	71.8323	Inf	0.000696677	23.531	23.5686	23.4935	32.6107	0.482325	0.314031	10.1456	-1
70.2	72.4808	Inf	0.000701145	23.5468	23.5614	23.5322	32.6102	0.48236	0.320701	10.1457	-1
70.65	73.1633	Inf	0.000705642	23.5195	23.5508	23.4881	32.6132	0.481762	0.36052	10.1456	-1
71.1	73.7692	Inf	0.000710154	23.5378	23.5708	23.5048	32.6097	0.482982	0.434676	10.1452	-1
71.55	74.2793	Inf	0.000714659	23.519	23.5429	23.4952	32.6113	0.482007	0.37943	10.1454	-1
72	74.8966	Inf	0.000719161	23.5336	23.5498	23.5174	32.6104	0.48067	0.353753	10.1452	-1
72.45	75.5213	Inf	0.000723666	23.5325	23.561	23.5041	32.6105	0.481976	0.382446	10.1455	-1
72.9	76.2342	Inf	0.000728146	23.5304	23.5452	23.5156	32.6114	0.482075	0.442405	10.1452	-1
73.35	76.6368	Inf	0.000732654	23.5287	23.5534	23.5039	32.612	0.482486	0.526276	10.1454	-1
73.8	77.3853	Inf	0.000737162	23.5341	23.5627	23.5055	32.6117	0.482214	0.507735	10.1453	-1
74.25	77.8993	Inf	0.000741662	23.5313	23.57	23.4926	32.6107	0.482222	0.417222	10.1453	-1
74.7	78.4349	Inf	0.000746154	23.5215	23.5496	23.4934	32.6102	0.481334	0.431469	10.1454	-1
75.15	79.0236	Inf	0.000750649	23.518	23.5501	23.486	32.61	0.481443	0.446053	10.1452	-1
75.6	79.6909	Inf	0.000755133	23.5323	23.5574	23.5071	32.6107	0.482056	0.474711	10.145	-1
76.05	80.1837	Inf	0.000759656	23.5311	23.5609	23.5013	32.6106	0.482522	0.490098	10.1455	-1
76.5	80.7602	Inf	0.000764154	23.5277	23.559	23.4964	32.6107	0.481723	0.464314	10.1456	-1
76.95	81.372	Inf	0.000768652	23.5299	23.5581	23.5016	32.6119	0.481861	0.393592	10.1456	-1
77.4	81.9313	Inf	0.00077314	23.525	23.545	23.505	32.6104	0.481956	0.460303	10.1452	-1
77.85	82.5216	Inf	0.000777654	23.5164	23.546	23.4868	32.6105	0.482039	0.532105	10.1455	-1
78.3	83.0521	Inf	0.000782151	23.5313	23.5485	23.5142	32.6117	0.481488	0.565238	10.1454	-1
78.75	83.6469	Inf	0.000786654	23.5392	23.5652	23.5133	32.6107	0.482022	0.542811	10.1455	-1
79.2	84.0893	Inf	0.000791151	23.5324	23.5567	23.508	32.6108	0.482426	0.519809	10.1454	-1
79.65	84.5835	Inf	0.000795637	23.5344	23.5585	23.5103	32.6108	0.482845	0.557315	10.1454	-1
80.1	85.1451	Inf	0.000800129	23.5292	23.5497	23.5086	32.6116	0.482003	0.533968	10.1454	-1
80.55	85.6252	Inf	0.00080465	23.5405	23.5647	23.5163	32.6121	0.481935	0.581518	10.1451	-1
81	86.1151	Inf	0.000809157	23.532	23.5666	23.4974	32.6118	0.482304	0.53158	10.1454	-1
81.45	86.5684	Inf	0.000813648	23.5297	23.5523	23.5071	32.611	0.48262	0.525239	10.1455	-1
81.9	87.1318	Inf	0.000818133	23.5374	23.5581	23.5166	32.6122	0.481676	0.512761	10.1456	-1
82.35	87.6753	Inf	0.00082261	23.5269	23.5562	23.4976	32.6117	0.482014	0.571447	10.1453	-1
82.8	88.0697	Inf	0.000827121	23.5347	23.5745	23.4949	32.611	0.482628	0.619672	10.1453	-1
83.25	88.6794	Inf	0.000831628	23.5571	23.5827	23.5315	32.6114	0.482154	0.625491	10.145	-1
83.7	89.1266	Inf	0.000836144	23.5197	23.5458	23.4935	32.6115	0.482033	0.57486	10.1456	-1
84.15	89.5954	Inf	0.000840621	23.5331	23.5703	23.4958	32.6114	0.481579	0.535781	10.1456	-1
84.6	89.8803	Inf	0.000845114	23.5321	23.5717	23.4926	32.6125	0.480745	0.576439	10.1454	-1
85.05	90.3661	Inf	0.000849651	23.5418	23.5846	23.499	32.6129	0.48203	0.559656	10.1454	-1
85.5	90.778	Inf	0.000854122	23.5181	23.5472	23.4889	32.611	0.481448	0.559894	10.1456	-1
85.95	91.1926	Inf	0.000858638	23.5389	23.5686	23.5093	32.6116	0.480594	0.49306	10.1456	-1
86.4	91.5963	Inf	0.000863111	23.536	23.5745	23.4975	32.611	0.482179	0.485045	10.1454	-1
86.85	92.0059	Inf	0.000867615	23.524	23.5387	23.5093	32.6107	0.482552	0.51684	10.1452	-1
87.3	92.3973	Inf	0.000872108	23.5324	23.5592	23.5056	32.6101	0.482265	0.598693	10.1451	-1
87.75	92.8	Inf	0.00087663	23.527	23.5501	23.5039	32.612	0.482688	0.639872	10.1452	-1
88.2	93.1519	Inf	0.00088111	23.5455	23.5792	23.5118	32.6119	0.481623	0.635208	10.1454	-1
88.65	93.4383	Inf	0.000885617	23.5298	23.5598	23.4998	32.6128	0.48225	0.611503	10.1453	-1
89.1	93.8501	Inf	0.000890098	23.5331	23.5491	23.5171	32.6102	0.48228	0.617596	10.1455	-1
89.55	94.0926	Inf	0.000894618	23.5393	23.5772	23.5014	32.6113	0.481732	0.661031	10.1455	-1
90	94.5574	Inf	0.000899105	23.5404	23.5685	23.5123	32.6121	0.481924	0.687334	10.1455	-1
90.45	94.8306	Inf	0.000903619	23.5402	23.5722	23.5082	32.6126	0.481942	0.654965	10.1457	-1
90.9	95.1047	Inf	0.000908126	23.5353	23.5647	23.5059	32.6115	0.481982	0.635641	10.1453	-1
91.35	95.374	Inf	0.000912607	23.533	23.5616	23.5043	32.6127	0.481341	0.625535	10.1454	-1
91.8	95.6306	Inf	0.000917119	23.5282	23.568	23.4885	32.6113	0.480927	0.674536	10.1452	-1
92.25	95.9372	Inf	0.000921606	23.5337	23.5677	23.4997	32.6115	0.481142	0.728371	10.1455	-1
92.7	96.188	Inf	0.000926116	23.5489	23.5659	23.5319	32.6127	0.482227	0.758998	10.1456	-1
93.15	96.4257	Inf	0.000930612	23.5256	23.5449	23.5062	32.6121	0.481796	0.666699	10.1456	-1
93.6	96.6512	Inf	0.000935108	23.5492	23.5755	23.523	32.6111	0.482368	0.675585	10.1454	-1
94.05	96.9523	Inf	0.000939603	23.518	23.5468	23.4893	32.6119	0.482364	0.696093	10.1455	-1
94.5	97.079	Inf	0.000944108	23.5285	23.5463	23.5107	32.6127	0.48233	0.754647	10.1456	-1
94.95	97.3588	Inf	0.000948605	23.5343	23.5691	23.4995	32.6123	0.483076	0.733003	10.1457	-1
95.4	97.6002	Inf	0.000953128	23.5348	23.5637	23.5059	32.6113	0.481692	0.711945	10.1459	-1
95.85	97.6963	Inf	0.000957616	23.5382	23.5634	23.5129	32.6117	0.481801	0.667236	10.1451	-1
96.3	97.8784	Inf	0.0009621	23.5296	23.559	23.5002	32.613	0.481648	0.669832	10.1452	-1
96.75	98.0788	Inf	0.000966605	23.5408	23.5663	23.5153	32.6128	0.483153	0.741857	10.1454	-1
97.2	98.2219	Inf	0.000971116	23.5135	23.5404	23.4866	32.6141	0.480498	0.802485	10.1453	-1
97.65	98.4323	Inf	0.000975612	23.5287	23.5678	23.4896	32.6134	0.481384	0.769547	10.1454	-1
98.1	98.5515	Inf	0.00098011	23.528	23.5569	23.4991	32.6115	0.482635	0.726126	10.1453	-1
98.55	98.7822	Inf	0.000984591	23.5328	23.5521	23.5135	32.6122	0.481597	0.750414	10.1454	-1
99	98.8884	Inf	0.000989104	23.5284	23.5574	23.4994	32.6109	0.480984	0.757695	10.1452	-1
99.45	99.0472	Inf	0.00099361	23.5289	23.581	23.4769	32.6125	0.481614	0.801434	10.1454	-1
99.9	99.1149	Inf	0.000998105	23.5377	23.5536	23.5218	32.6123	0.481383	0.749008	10.1452	-1
100.35	99.267	Inf	0.00100261	23.5457	23.5744	23.5169	32.6117	0.482903	0.698792	10.1458	-1
100.8	99.2297	Inf	0.00100709	23.5315	23.5548	23.5082	32.6129	0.481734	0.651597	10.1452	-1
101.25	99.4624	Inf	0.00101157	23.5458	23.5689	23.5228	32.612	0.482605	0.691698	10.1458	-1
101.7	99.5066	Inf	0.00101609	23.5184	23.5441	23.4928	32.6138	0.481549	0.725673	10.146	-1
102.15	99.6119	Inf	0.00102061	23.542	23.5686	23.5154	32.6133	0.481163	0.703685	10.1456	-1
102.6	99.7132	Inf	0.0010251	23.5137	23.5461	23.4812	32.6135	0.481443	0.672133	10.1455	-1
103.05	99.7859	Inf	0.00102961	23.535	23.5601	23.5098	32.6133	0.481936	0.66819	10.1459	-1
103.5	99.8459	Inf	0.00103409	23.5378	23.5631	23.5125	32.6134	0.481886	0.686361	10.1455	-1
103.95	99.9175	Inf	0.00103857	23.5334	23.5711	23.4958	32.6124	0.482375	0.714636	10.1456	-1
104.4	99.9914	Inf	0.00104308	23.543	23.5654	23.5206	32.6132	0.481902	0.732265	10.1453	-1
104.85	100.102	Inf	0.00104758	23.5286	23.5608	23.4964	32.6142	0.481717	0.72843	10.1456	-1
105.3	100.118	Inf	0.0010521	23.5419	23.5699	23.5138	32.6138	0.481972	0.655547	10.1455	-1
105.75	100.171	Inf	0.00105659	23.5376	23.5738	23.5014	32.6128	0.4819	0.702231	10.1451	-1
106.2	100.107	Inf	0.00106106	23.5463	23.5737	23.519	32.6129	0.482401	0.729047	10.146	-1
106.65	100.136	Inf	0.00106555	23.5468	23.5666	23.5269	32.6133	0.481865	0.796548	10.1455	-1
107.1	100.191	Inf	0.00107007	23.5294	23.558	23.5008	32.6135	0.481138	0.758588	10.1455	-1
107.55	100.209	Inf	0.00107459	23.535	23.5723	23.4976	32.6137	0.481792	0.681188	10.1456	-1
108	100.181	Inf	0.00107908	23.5389	23.5643	23.5135	32.6136	0.480697	0.702566	10.1454	-1
108.45	100.249	Inf	0.00108358	23.5384	23.5712	23.5055	32.6124	0.481333	0.746163	10.1454	-1
108.9	100.237	Inf	0.00108805	23.5392	23.5637	23.5147	32.6141	0.481644	0.738668	10.1454	-1
109.35	100.248	Inf	0.00109259	23.5311	23.5556	23.5065	32.6134	0.48135	0.747036	10.1456	-1
109.8	100.208	Inf	0.00109708	23.5325	23.555	23.51	32.6143	0.482246	0.712581	10.1453	-1
110.25	100.231	Inf	0.00110157	23.5201	23.5492	23.491	32.613	0.481912	0.623879	10.145	-1
110.7	100.228	Inf	0.00110604	23.5372	23.5693	23.5051	32.6138	0.482119	0.69617	10.1449	-1
111.15	100.208	Inf	0.00111056	23.5373	23.552	23.5226	32.6132	0.481602	0.717592	10.1454	-1
111.6	100.098	Inf	0.00111508	23.5484	23.5768	23.5199	32.6143	0.48191	0.707503	10.1453	-1
112.05	100.17	Inf	0.00111957	23.5317	23.5602	23.5032	32.6141	0.482656	0.691806	10.1455	-1
112.5	100.114	Inf	0.00112408	23.5381	23.5625	23.5137	32.6129	0.482466	0.707466	10.1452	-1
112.95	99.9039	Inf	0.00112856	23.5521	23.5735	23.5308	32.6143	0.481991	0.686621	10.1457	-1
113.4	100.064	Inf	0.00113307	23.545	23.5715	23.5186	32.6124	0.481678	0.740872	10.1455	-1
113.85	99.9331	Inf	0.00113756	23.5367	23.5554	23.5179	32.6127	0.481708	0.750803	10.1454	-1
114.3	100.026	Inf	0.00114207	23.5038	23.5389	23.4688	32.6134	0.481912	0.673426	10.1453	-1
114.75	99.9449	Inf	0.00114656	23.5401	23.5688	23.5115	32.6141	0.481316	0.666111	10.1457	-1
115.2	99.9432	Inf	0.00115105	23.557	23.5887	23.5252	32.6131	0.481162	0.666751	10.1453	-1
115.65	99.8609	Inf	0.00115555	23.5416	23.5711	23.5121	32.6135	0.481199	0.693672	10.1459	-1
116.1	99.7777	Inf	0.00116006	23.5432	23.5635	23.5229	32.6156	0.481726	0.720303	10.1456	-1
116.55	99.797	Inf	0.00116454	23.5283	23.5556	23.5009	32.6132	0.481294	0.730089	10.1453	-1
117	99.7552	Inf	0.00116906	23.5417	23.5684	23.5151	32.614	0.481422	0.668121	10.146	-1
117.45	99.6653	Inf	0.00117357	23.5297	23.5657	23.4937	32.6139	0.481094	0.610197	10.1452	-1
117.9	99.6596	Inf	0.00117805	23.5441	23.571	23.5172	32.6138	0.4812	0.597883	10.1453	-1
118.35	99.6207	Inf	0.00118254	23.5332	23.5524	23.514	32.6144	0.480686	0.635955	10.1457	-1
118.8	99.5475	Inf	0.00118704	23.5414	23.5721	23.5107	32.6137	0.481391	0.633004	10.1455	-1
119.25	99.5093	Inf	0.00119156	23.5354	23.5667	23.5042	32.615	0.481793	0.579392	10.1454	-1
119.7	99.3719	Inf	0.00119605	23.5279	23.5709	23.485	32.6146	0.481693	0.52273	10.1456	-1
120.15	99.2747	Inf	0.00120056	23.5402	23.5589	23.5216	32.6139	0.481338	0.552934	10.1457	-1
120.6	99.3288	Inf	0.00120501	23.5368	23.5668	23.5067	32.6135	0.481456	0.624156	10.1456	-1
121.05	99.2758	Inf	0.00120954	23.5325	23.5661	23.4989	32.6131	0.481001	0.65038	10.1457	-1
121.5	99.1536	Inf	0.00121404	23.5459	23.5697	23.5221	32.6141	0.481822	0.626078	10.1455	-1
121.95	99.1713	Inf	0.00121853	23.5348	23.5536	23.5161	32.6145	0.482133	0.627633	10.1454	-1
122.4	99.1606	Inf	0.00122303	23.5423	23.5751	23.5095	32.6147	0.481118	0.606893	10.1458	-1
122.85	99.2031	Inf	0.00122753	23.5499	23.5734	23.5264	32.6147	0.481538	0.658222	10.1452	-1
123.3	98.9905	Inf	0.00123201	23.5447	23.5774	23.5121	32.6147	0.481085	0.703706	10.1453	-1
123.75	98.9905	Inf	0.00123654	23.5458	23.562	23.5297	32.6154	0.481364	0.70716	10.1453	-1
124.2	98.8531	Inf	0.00124102	23.5372	23.5592	23.5152	32.6152	0.481233	0.633959	10.1452	-1
124.65	98.8149	Inf	0.00124555	23.5458	23.5752	23.5163	32.6161	0.481121	0.615653	10.1456	-1
125.1	98.8183	Inf	0.00125004	23.5269	23.5615	23.4923	32.6147	0.480982	0.623146	10.1454	-1
125.55	98.7719	Inf	0.00125453	23.5569	23.5759	23.5378	32.6152	0.481545	0.696372	10.1454	-1
126	98.6345	Inf	0.00125904	23.5268	23.5541	23.4995	32.6134	0.481037	0.688514	10.1454	-1
126.45	98.6793	Inf	0.00126355	23.5403	23.5749	23.5058	32.6159	0.481397	0.682276	10.1455	-1
126.9	98.5624	Inf	0.00126805	23.5513	23.5918	23.5108	32.6152	0.481987	0.604375	10.1454	-1
127.35	98.437	Inf	0.00127251	23.5418	23.5825	23.5012	32.6144	0.48129	0.630965	10.1454	-1
127.8	98.3068	Inf	0.00127703	23.5258	23.5555	23.496	32.6156	0.480951	0.634546	10.1455	-1
128.25	98.2645	Inf	0.00128152	23.5362	23.5654	23.5071	32.6135	0.481685	0.645572	10.1457	-1
128.7	98.2699	Inf	0.00128605	23.5468	23.5758	23.5178	32.6153	0.48152	0.627282	10.1453	-1
129.15	98.1956	Inf	0.00129055	23.5275	23.5613	23.4937	32.6148	0.48257	0.594714	10.1452	-1
129.6	98.1971	Inf	0.00129501	23.5303	23.5525	23.5081	32.615	0.481232	0.612962	10.1456	-1
130.05	98.2472	Inf	0.00129952	23.5474	23.5741	23.5207	32.6151	0.481931	0.651403	10.1455	-1
130.5	98.2604	Inf	0.001304	23.5411	23.5788	23.5034	32.6158	0.482853	0.676574	10.1452	-1
130.95	98.2037	Inf	0.00130853	23.5493	23.5667	23.5319	32.6152	0.48222	0.673434	10.1453	-1
131.4	98.2546	Inf	0.00131305	23.5451	23.5699	23.5203	32.6152	0.482142	0.630106	10.1456	-1
131.85	98.1128	Inf	0.00131752	23.5345	23.5604	23.5085	32.616	0.481594	0.64323	10.1457	-1
132.3	98.1166	Inf	0.00132201	23.5409	23.5752	23.5066	32.6153	0.481987	0.658356	10.1454	-1
132.75	98.1359	Inf	0.00132651	23.5377	23.5698	23.5057	32.6144	0.481653	0.690709	10.1455	-1
133.2	98.1801	Inf	0.00133102	23.5423	23.5758	23.5088	32.615	0.481266	0.690195	10.1456	-1
133.65	98.1229	Inf	0.00133552	23.5544	23.5784	23.5304	32.6147	0.480471	0.641755	10.1454	-1
134.1	97.9796	Inf	0.00134	23.5528	23.5649	23.5408	32.6152	0.481088	0.640243	10.1459	-1
134.55	97.9759	Inf	0.00134452	23.525	23.5478	23.5022	32.6149	0.481406	0.686447	10.1456	-1
135	98.0786	Inf	0.001349	23.5292	23.551	23.5073	32.6152	0.482226	0.744309	10.1454	-1
135.45	98.2205	Inf	0.00135351	23.5293	23.5544	23.5043	32.6147	0.481899	0.736028	10.1456	-1
135.9	98.278	Inf	0.00135804	23.5386	23.5659	23.5113	32.6143	0.481213	0.760748	10.1457	-1
136.35	98.3193	Inf	0.00136252	23.5518	23.577	23.5265	32.6157	0.481126	0.734588	10.1457	-1
136.8	98.3259	Inf	0.001367	23.5342	23.5705	23.4979	32.6151	0.482597	0.735512	10.1454	-1
137.25	98.4775	Inf	0.00137152	23.5491	23.5729	23.5254	32.6155	0.481884	0.790455	10.1454	-1
137.7	98.4071	Inf	0.00137603	23.543	23.5748	23.5112	32.6151	0.481338	0.845565	10.1457	-1
138.15	98.3892	Inf	0.0013805	23.535	23.5634	23.5066	32.6163	0.481822	0.869031	10.1454	-1
138.6	98.4466	Inf	0.00138502	23.5478	23.5791	23.5165	32.6161	0.481122	0.848822	10.1456	-1
139.05	98.2801	Inf	0.00138948	23.5313	23.5498	23.5129	32.6148	0.481785	0.816048	10.1455	-1
139.5	98.1728	Inf	0.00139401	23.5416	23.574	23.5092	32.616	0.481195	0.875451	10.1455	-1
139.95	98.1243	Inf	0.00139851	23.5331	23.5683	23.4979	32.6161	0.481828	0.890911	10.1452	-1
140.4	98.151	Inf	0.00140302	23.5333	23.5597	23.507	32.6158	0.482398	0.900516	10.1454	-1
140.85	97.9498	Inf	0.00140752	23.5549	23.5796	23.5302	32.6154	0.481418	0.916239	10.1452	-1
141.3	98.0421	Inf	0.00141202	23.5302	23.5592	23.5012	32.6157	0.482079	0.902869	10.1455	-1
141.75	97.8611	Inf	0.00141648	23.5531	23.5708	23.5353	32.6163	0.481622	0.929604	10.1456	-1
142.2	97.8793	Inf	0.00142099	23.5406	23.5533	23.5278	32.6166	0.481242	0.970351	10.1456	-1
142.65	97.7856	Inf	0.00142552	23.5552	23.5804	23.5301	32.6161	0.481399	0.934737	10.1453	-1
143.1	97.8378	Inf	0.00143002	23.5437	23.564	23.5234	32.6153	0.481688	0.852614	10.1453	-1
143.55	97.6348	Inf	0.00143447	23.5396	23.5637	23.5154	32.6164	0.481352	0.850386	10.1456	-1
144	97.5134	Inf	0.00143899	23.5418	23.5696	23.514	32.6161	0.481196	0.800191	10.1452	-1
144.45	97.5056	Inf	0.0014435	23.5497	23.568	23.5314	32.6151	0.481397	0.863405	10.1451	-1
144.9	97.3734	Inf	0.00144799	23.5451	23.566	23.5242	32.6184	0.481521	0.879973	10.1458	-1
145.35	97.3591	Inf	0.00145249	23.5401	23.5651	23.5152	32.6176	0.480966	0.887547	10.1453	-1
145.8	97.4163	Inf	0.00145699	23.5393	23.565	23.5136	32.6161	0.481347	0.859597	10.1452	-1
146.25	97.2369	Inf	0.00146147	23.548	23.5759	23.5201	32.6153	0.481797	0.857135	10.1454	-1
146.7	97.1581	Inf	0.00146599	23.5262	23.5574	23.4951	32.616	0.481309	0.866793	10.1457	-1
147.15	97.1425	Inf	0.00147048	23.5413	23.5812	23.5015	32.6175	0.482315	0.944772	10.1456	-1
147.6	97.1983	Inf	0.001475	23.5429	23.5766	23.5091	32.6172	0.482445	0.868541	10.1456	-1
148.05	97.1055	Inf	0.00147949	23.5522	23.5886	23.5159	32.6179	0.481789	0.840109	10.1458	-1
148.5	97.0826	Inf	0.00148399	23.5496	23.5849	23.5144	32.616	0.481377	0.852006	10.1451	-1
148.95	97.1282	Inf	0.00148848	23.5324	23.5762	23.4887	32.6156	0.481857	0.923461	10.1456	-1
149.4	96.9678	Inf	0.00149299	23.5456	23.5698	23.5213	32.6162	0.481201	1.00545	10.1457	-1
149.85	96.8263	Inf	0.00149747	23.5471	23.5665	23.5276	32.6174	0.481999	1.01312	10.1455	-1
150.3	96.9224	Inf	0.00150201	23.5642	23.5906	23.5378	32.6156	0.480797	0.971476	10.1454	-1
150.75	96.8306	Inf	0.00150648	23.5522	23.5657	23.5388	32.6185	0.481974	0.935647	10.1456	-1
151.2	96.7993	Inf	0.00151096	23.5475	23.5743	23.5207	32.6178	0.481033	0.95036	10.1455	-1
151.65	96.7627	Inf	0.00151546	23.5542	23.5763	23.5322	32.6158	0.480872	0.984937	10.1455	-1
152.1	96.7758	Inf	0.00151998	23.5549	23.5722	23.5375	32.6171	0.481458	1.01785	10.1451	-1
152.55	96.7545	Inf	0.00152448	23.5311	23.5678	23.4944	32.6156	0.48117	0.966521	10.1452	-1
153	96.7763	Inf	0.00152896	23.5389	23.5777	23.5	32.6175	0.482784	0.890081	10.1453	-1
153.45	96.8017	Inf	0.00153348	23.5482	23.5725	23.5239	32.6159	0.480495	0.915845	10.1452	-1
153.9	96.8693	Inf	0.00153795	23.5599	23.6029	23.5169	32.6178	0.481054	0.987711	10.1452	-1
154.35	96.8559	Inf	0.00154246	23.5668	23.5928	23.5408	32.6173	0.481312	1.0435	10.1453	-1
154.8	96.8927	Inf	0.00154699	23.5441	23.5665	23.5216	32.6172	0.481468	1.04981	10.1457	-1
155.25	96.9458	Inf	0.00155146	23.545	23.5735	23.5166	32.6171	0.481366	1.06014	10.1455	-1
155.7	97.0395	Inf	0.00155596	23.5511	23.579	23.5231	32.6168	0.481317	1.0415	10.1454	-1
156.15	96.9117	Inf	0.00156047	23.5465	23.5656	23.5274	32.6165	0.481264	1.06267	10.1453	-1
156.6	97.0238	Inf	0.00156494	23.5508	23.5689	23.5327	32.6173	0.481466	1.08847	10.1452	-1
157.05	97.0804	Inf	0.00156948	23.5481	23.5697	23.5265	32.617	0.480915	1.03787	10.1453	-1
157.5	97.0572	Inf	0.00157398	23.5475	23.5662	23.5288	32.6174	0.48183	0.967518	10.1453	-1
157.95	97.1376	Inf	0.00157846	23.5503	23.5818	23.5189	32.6179	0.481455	0.977365	10.145	-1
158.4	97.0561	Inf	0.00158295	23.5426	23.575	23.5102	32.6166	0.481488	0.954202	10.1454	-1
158.85	97.089	Inf	0.00158746	23.5472	23.5657	23.5287	32.617	0.480985	1.01986	10.1452	-1
159.3	97.0868	Inf	0.00159196	23.5372	23.5642	23.5102	32.616	0.481308	1.06542	10.145	-1
159.75	96.9974	Inf	0.00159647	23.5614	23.5913	23.5316	32.6172	0.48217	1.01297	10.1453	-1
160.2	97.1468	Inf	0.00160095	23.5471	23.5607	23.5336	32.6178	0.482095	0.954527	10.1449	-1
160.65	97.0833	Inf	0.00160547	23.5469	23.5715	23.5223	32.6176	0.48156	0.982458	10.1451	-1
161.1	97.1462	Inf	0.00160994	23.5555	23.5902	23.5208	32.6162	0.48168	1.00743	10.1455	-1
161.55	97.1671	Inf	0.00161447	23.5432	23.5711	23.5153	32.616	0.480657	0.972703	10.1451	-1
162	97.2649	Inf	0.00161898	23.5581	23.5955	23.5207	32.6179	0.481442	0.973587	10.1454	-1
162.45	97.2447	Inf	0.00162345	23.5445	23.5735	23.5154	32.6166	0.481728	0.895767	10.1451	-1
162.9	97.271	Inf	0.00162793	23.5529	23.5748	23.5311	32.6171	0.480198	0.930843	10.1453	-1
163.35	97.2665	Inf	0.00163246	23.5413	23.5706	23.5119	32.6172	0.481554	0.99451	10.1457	-1
163.8	97.2838	Inf	0.00163696	23.5385	23.5679	23.509	32.6171	0.481049	1.07548	10.1456	-1
164.25	97.2767	Inf	0.00164145	23.562	23.5863	23.5376	32.6192	0.481499	1.0863	10.1454	-1
164.7	97.4169	Inf	0.00164596	23.5394	23.5655	23.5133	32.6163	0.481461	1.04618	10.1453	-1
165.15	97.4305	Inf	0.00165042	23.5508	23.5619	23.5397	32.6168	0.481295	1.09104	10.1452	-1
165.6	97.482	Inf	0.00165494	23.5342	23.5587	23.5098	32.6176	0.481603	1.13867	10.1451	-1
166.05	97.5528	Inf	0.00165943	23.5484	23.5706	23.5263	32.618	0.481103	1.16839	10.145	-1
166.5	97.5893	Inf	0.00166396	23.5611	23.5809	23.5413	32.6179	0.481442	1.15122	10.145	-1
166.95	97.5945	Inf	0.00166845	23.5502	23.5598	23.5406	32.6165	0.480955	1.08847	10.1449	-1
167.4	97.6698	Inf	0.00167297	23.5543	23.5824	23.5262	32.6168	0.48106	1.07119	10.1452	-1
167.85	97.7606	Inf	0.00167743	23.5444	23.5597	23.5291	32.619	0.481194	1.10536	10.1452	-1
168.3	97.7419	Inf	0.00168191	23.5399	23.5563	23.5236	32.6185	0.482725	1.15108	10.145	-1
168.75	97.7597	Inf	0.00168644	23.55	23.568	23.532	32.6192	0.47996	1.1212	10.1449	-1
169.2	97.8163	Inf	0.00169095	23.5414	23.5683	23.5146	32.6198	0.481855	1.06964	10.1451	-1
169.65	97.8425	Inf	0.00169544	23.5513	23.5801	23.5224	32.6157	0.482408	1.03658	10.145	-1
170.1	98.0651	Inf	0.00169993	23.5377	23.5795	23.4958	32.6192	0.481282	1.04538	10.1455	-1
170.55	97.9576	Inf	0.00170442	23.5577	23.5661	23.5494	32.6197	0.480777	1.11814	10.1452	-1
171	98.0556	Inf	0.00170892	23.5554	23.5784	23.5323	32.616	0.481641	1.14339	10.145	-1
171.45	98.1693	Inf	0.00171343	23.5445	23.5637	23.5253	32.6183	0.481702	1.12759	10.1452	-1
171.9	98.0762	Inf	0.00171793	23.5271	23.5478	23.5064	32.6192	0.482241	1.14077	10.1448	-1
172.35	98.1179	Inf	0.00172242	23.5439	23.5775	23.5102	32.6169	0.481792	1.11771	10.1451	-1
172.8	97.9408	Inf	0.00172691	23.562	23.5807	23.5433	32.6194	0.481947	1.21455	10.1451	-1
173.25	98.0901	Inf	0.00173141	23.5424	23.5617	23.5232	32.6183	0.481593	1.23877	10.145	-1
173.7	98.2298	Inf	0.00173593	23.5562	23.5817	23.5308	32.6178	0.480783	1.19147	10.1452	-1
174.15	98.0446	Inf	0.00174043	23.5406	23.5604	23.5208	32.619	0.480961	1.14323	10.1452	-1
174.6	98.2141	Inf	0.00174493	23.5373	23.5655	23.509	32.6193	0.482629	1.1297	10.145	-1
175.05	98.2366	Inf	0.0017494	23.5349	23.5613	23.5085	32.6175	0.481868	1.1172	10.1453	-1
175.5	98.2618	Inf	0.00175392	23.5595	23.5788	23.5402	32.6174	0.481561	1.10668	10.1451	-1
175.95	98.2356	Inf	0.00175845	23.5568	23.5766	23.537	32.619	0.481954	1.10839	10.1451	-1
176.4	98.3727	Inf	0.00176294	23.534	23.561	23.5069	32.6183	0.481835	1.0773	10.1449	-1
176.85	98.3417	Inf	0.00176737	23.549	23.5798	23.5183	32.6186	0.48173	1.03266	10.1451	-1
177.3	98.3937	Inf	0.0017719	23.5516	23.5737	23.5295	32.6187	0.481926	1.02768	10.1452	-1
177.75	98.3467	Inf	0.00177643	23.5488	23.5779	23.5197	32.6181	0.482111	1.0784	10.1453	-1
178.2	98.4226	Inf	0.00178093	23.5467	23.5672	23.5262	32.6186	0.481408	1.06097	10.1448	-1
178.65	98.5021	Inf	0.00178541	23.551	23.5681	23.5338	32.6171	0.481943	1.02877	10.1453	-1
179.1	98.5125	Inf	0.00178994	23.5513	23.5813	23.5213	32.6193	0.481882	0.951524	10.1449	-1
179.55	98.5533	Inf	0.00179443	23.5412	23.5644	23.5179	32.6178	0.4814	0.924317	10.1452	-1
180	98.5955	Inf	0.00179891	23.5544	23.5688	23.54	32.6201	0.481395	0.992356	10.145	-1
180.45	98.7124	Inf	0.00180342	23.5483	23.5766	23.52	32.6171	0.481658	1.03688	10.1455	-1
180.9	98.748	Inf	0.00180791	23.5515	23.5783	23.5247	32.6183	0.481798	1.02329	10.1451	-1
181.35	98.8701	Inf	0.0018124	23.5476	23.5713	23.524	32.6175	0.481653	0.940633	10.1451	-1
181.8	98.8268	Inf	0.00181691	23.5378	23.5594	23.5161	32.6189	0.481397	0.931633	10.1455	-1
182.25	98.8628	Inf	0.00182139	23.5475	23.5712	23.5238	32.6192	0.481879	1.01908	10.1456	-1
182.7	98.9634	Inf	0.00182592	23.5372	23.5674	23.507	32.6186	0.481842	1.0516	10.1452	-1
183.15	99.1111	Inf	0.00183042	23.556	23.5811	23.5309	32.6197	0.481197	1.05808	10.1458	-1
183.6	99.0425	Inf	0.00183491	23.5502	23.5842	23.5162	32.6185	0.481181	0.999957	10.1453	-1
184.05	99.1068	Inf	0.00183941	23.5387	23.5596	23.5178	32.6193	0.481851	0.946315	10.1453	-1
184.5	99.0882	Inf	0.0018439	23.5587	23.587	23.5304	32.6192	0.481285	0.947149	10.1453	-1
184.95	99.1306	Inf	0.00184836	23.5477	23.5815	23.514	32.6185	0.481536	0.945627	10.1454	-1
185.4	99.1515	Inf	0.0018529	23.5541	23.5874	23.5207	32.6185	0.481146	0.952706	10.1451	-1
185.85	99.2015	Inf	0.0018574	23.5488	23.5727	23.525	32.6196	0.481574	0.905741	10.1452	-1
186.3	99.2359	Inf	0.00186192	23.5433	23.5742	23.5125	32.6201	0.481949	0.855039	10.1453	-1
186.75	99.2799	Inf	0.00186635	23.56	23.5861	23.5339	32.6197	0.481708	0.8551	10.1451	-1
187.2	99.3021	Inf	0.00187091	23.5403	23.566	23.5146	32.6197	0.481689	0.921809	10.1453	-1
187.65	99.3524	Inf	0.00187535	23.549	23.5742	23.5238	32.6189	0.48123	0.997002	10.145	-1
188.1	99.3694	Inf	0.00187991	23.5462	23.569	23.5234	32.6194	0.481819	0.977241	10.1457	-1
188.55	99.4172	Inf	0.00188439	23.563	23.5845	23.5415	32.6191	0.481251	0.94744	10.1456	-1
189	99.48	Inf	0.0018889	23.5444	23.58	23.5089	32.6189	0.48101	0.907252	10.1453	-1
189.45	99.5347	Inf	0.00189338	23.5417	23.5722	23.5112	32.6203	0.481842	0.911765	10.1454	-1
189.9	99.5475	Inf	0.00189787	23.5555	23.579	23.532	32.6189	0.481647	0.954145	10.1455	-1
190.35	99.5461	Inf	0.00190239	23.559	23.5947	23.5233	32.618	0.481179	0.951811	10.1454	-1
190.8	99.7533	Inf	0.00190692	23.5454	23.5672	23.5235	32.6189	0.481411	0.969971	10.1453	-1
191.25	99.6681	Inf	0.00191136	23.5464	23.5697	23.5232	32.6191	0.480828	0.922452	10.1457	-1
191.7	99.686	Inf	0.0019158	23.55	23.577	23.523	32.6193	0.481693	1.00108	10.1454	-1
192.15	99.7349	Inf	0.00192038	23.5632	23.5933	23.5331	32.6193	0.481312	1.07059	10.1454	-1
192.6	99.8122	Inf	0.00192487	23.5579	23.5879	23.5279	32.6202	0.480855	1.04202	10.1454	-1
193.05	99.8359	Inf	0.0019294	23.5609	23.5862	23.5357	32.6198	0.481209	1.01338	10.1451	-1
193.5	99.9709	Inf	0.00193389	23.5338	23.5623	23.5053	32.6198	0.481853	0.986719	10.1454	-1
193.95	100.003	Inf	0.00193836	23.5558	23.5785	23.533	32.62	0.481476	0.96987	10.1454	-1
194.4	100.031	Inf	0.00194287	23.5412	23.5843	23.498	32.6199	0.482324	0.999031	10.1453	-1
194.85	100.028	Inf	0.00194739	23.555	23.5851	23.5248	32.6193	0.480531	1.00465	10.1454	-1
195.3	100.039	Inf	0.0019519	23.5504	23.5755	23.5254	32.6205	0.480601	0.992143	10.1454	-1
195.75	100.053	Inf	0.00195637	23.5515	23.5889	23.5141	32.6201	0.481333	0.921224	10.1458	-1
196.2	100.143	Inf	0.00196087	23.5661	23.6003	23.5319	32.6206	0.48113	0.930069	10.1456	-1
196.65	100.155	Inf	0.00196537	23.5569	23.5834	23.5304	32.6204	0.481007	0.982327	10.1455	-1
197.1	100.268	Inf	0.00196986	23.5628	23.5821	23.5436	32.6193	0.480815	1.03059	10.1453	-1
197.55	100.435	Inf	0.00197436	23.5722	23.586	23.5583	32.6197	0.481207	1.00834	10.145	-1
198	100.359	Inf	0.00197889	23.5568	23.5852	23.5284	32.6201	0.481317	0.974564	10.1454	-1
198.45	100.534	Inf	0.00198335	23.5724	23.6046	23.5402	32.618	0.480483	0.982702	10.145	-1
198.9	100.637	Inf	0.00198788	23.5292	23.5561	23.5023	32.6205	0.480135	0.969	10.1453	-1
199.35	100.574	Inf	0.00199237	23.5491	23.5826	23.5156	32.6215	0.481375	0.989169	10.1452	-1
199.8	100.588	Inf	0.00199685	23.542	23.5718	23.5121	32.6205	0.48124	0.990302	10.1451	-1
200.25	100.606	Inf	0.00200138	23.5469	23.5729	23.5209	32.6213	0.481682	0.895307	10.1456	-1
200.7	100.67	Inf	0.00200587	23.5593	23.5882	23.5304	32.6209	0.481527	0.859191	10.1456	-1
201.15	100.712	Inf	0.00201035	23.5558	23.5931	23.5184	32.6201	0.482013	0.850101	10.1455	-1
201.6	100.802	Inf	0.00201482	23.5428	23.5636	23.522	32.6197	0.481945	0.872775	10.1453	-1
202.05	100.873	Inf	0.00201936	23.5388	23.5762	23.5014	32.6208	0.479788	0.884114	10.1451	-1
202.5	100.806	Inf	0.00202387	23.5499	23.5742	23.5257	32.62	0.481676	0.845404	10.1453	-1
202.95	100.912	Inf	0.00202837	23.5516	23.5638	23.5395	32.6211	0.480582	0.756992	10.1452	-1
203.4	100.859	Inf	0.00203286	23.5468	23.5757	23.5179	32.6194	0.481623	0.733924	10.1454	-1
203.85	100.689	Inf	0.00203736	23.5407	23.5679	23.5134	32.6202	0.48109	0.658196	10.1458	-1
204.3	100.771	Inf	0.00204184	23.5569	23.5791	23.5347	32.6199	0.481235	0.693383	10.1454	-1
204.75	100.893	Inf	0.00204636	23.5616	23.5871	23.5362	32.6197	0.481807	0.734051	10.1454	-1
205.2	100.968	Inf	0.00205085	23.549	23.5744	23.5235	32.6228	0.481191	0.726194	10.1456	-1
205.65	100.983	Inf	0.00205533	23.5551	23.5804	23.5299	32.6208	0.48091	0.713695	10.1454	-1
206.1	101.101	Inf	0.00205984	23.5428	23.5766	23.509	32.6205	0.480997	0.787978	10.1454	-1
206.55	101.139	Inf	0.00206435	23.5495	23.5784	23.5206	32.6203	0.4818	0.838785	10.1455	-1
207	101.237	Inf	0.00206882	23.5698	23.5882	23.5514	32.6209	0.481661	0.815024	10.1456	-1
207.45	101.287	Inf	0.00207334	23.5553	23.5861	23.5245	32.6216	0.481817	0.795592	10.1455	-1
207.9	101.347	Inf	0.00207787	23.5541	23.5767	23.5316	32.6216	0.481769	0.80364	10.1453	-1
208.35	101.439	Inf	0.00208234	23.553	23.5728	23.5331	32.6204	0.481191	0.782205	10.1453	-1
208.8	101.466	Inf	0.00208685	23.546	23.5745	23.5174	32.6205	0.482174	0.818984	10.1454	-1
209.25	101.483	Inf	0.00209132	23.5657	23.5943	23.5372	32.6216	0.481546	0.840395	10.1453	-1
209.7	101.62	Inf	0.00209588	23.5621	23.591	23.5332	32.6212	0.480851	0.791221	10.1453	-1
210.15	101.578	Inf	0.00210028	23.5558	23.5754	23.5362	32.6204	0.480614	0.72749	10.1451	-1
210.6	101.708	Inf	0.00210482	23.5523	23.5784	23.5263	32.6205	0.481486	0.694326	10.1454	-1
211.05	101.746	Inf	0.00210933	23.558	23.5808	23.5353	32.6212	0.481891	0.766963	10.1454	-1
211.5	101.66	Inf	0.00211384	23.5667	23.5861	23.5474	32.6202	0.481285	0.806503	10.1455	-1
211.95	101.736	Inf	0.00211833	23.5567	23.5788	23.5346	32.6207	0.480969	0.774663	10.1455	-1
212.4	101.785	Inf	0.00212283	23.562	23.5878	23.5362	32.6205	0.480876	0.739034	10.1454	-1
212.85	101.952	Inf	0.00212732	23.5462	23.5773	23.5151	32.6198	0.480943	0.747251	10.1454	-1
213.3	101.979	Inf	0.00213184	23.5628	23.5839	23.5417	32.6244	0.480838	0.738801	10.1453	-1
213.75	101.96	Inf	0.00213635	23.5583	23.5832	23.5335	32.6206	0.481373	0.807816	10.1457	-1
214.2	101.978	Inf	0.00214082	23.5422	23.5786	23.5058	32.6208	0.481332	0.778531	10.1452	-1
214.65	101.996	Inf	0.00214533	23.5446	23.5643	23.5249	32.6215	0.481395	0.736595	10.145	-1
215.1	102.07	Inf	0.00214982	23.5615	23.5893	23.5336	32.6211	0.480786	0.734173	10.1448	-1
215.55	102.122	Inf	0.00215431	23.5524	23.5788	23.5261	32.6212	0.479796	0.771325	10.1453	-1
216	102.158	Inf	0.00215883	23.5544	23.5803	23.5285	32.6212	0.481976	0.804762	10.1452	-1
216.45	102.16	Inf	0.00216335	23.5559	23.5917	23.5201	32.6232	0.481679	0.788989	10.1456	-1
216.9	102.159	Inf	0.00216777	23.5445	23.581	23.508	32.6216	0.481979	0.733817	10.1454	-1
217.35	102.184	Inf	0.00217233	23.5512	23.5773	23.5251	32.6205	0.482503	0.685466	10.1448	-1
217.8	102.316	Inf	0.00217685	23.5593	23.5862	23.5324	32.6209	0.480674	0.677603	10.1452	-1
218.25	102.254	Inf	0.00218134	23.5412	23.5841	23.4982	32.6226	0.481199	0.69708	10.1451	-1
218.7	102.394	Inf	0.00218579	23.5484	23.5797	23.5171	32.6206	0.482426	0.678018	10.1453	-1
219.15	102.338	Inf	0.00219032	23.5437	23.584	23.5034	32.6197	0.481343	0.618129	10.1451	-1
219.6	102.348	Inf	0.00219485	23.5561	23.6004	23.5118	32.6208	0.481713	0.585233	10.1453	-1
220.05	102.419	Inf	0.00219931	23.5598	23.5841	23.5355	32.6204	0.480754	0.604349	10.1452	-1
220.5	102.546	Inf	0.00220381	23.5556	23.587	23.5243	32.6213	0.481203	0.620491	10.1456	-1
220.95	102.51	Inf	0.00220832	23.5508	23.5652	23.5364	32.6235	0.480962	0.696847	10.1455	-1
221.4	102.456	Inf	0.00221285	23.5571	23.5639	23.5503	32.6215	0.481146	0.668903	10.1451	-1
221.85	102.53	Inf	0.00221727	23.562	23.6045	23.5194	32.6204	0.480635	0.624921	10.1449	-1
222.3	102.447	Inf	0.00222182	23.5452	23.5744	23.5161	32.6201	0.480596	0.630573	10.1454	-1
222.75	102.564	Inf	0.00222631	23.5492	23.5922	23.5062	32.6208	0.481538	0.610737	10.1448	-1
223.2	102.432	Inf	0.00223081	23.5558	23.5846	23.5271	32.6231	0.481399	0.654633	10.1455	-1
223.65	102.503	Inf	0.00223529	23.5513	23.5736	23.529	32.6211	0.481784	0.617019	10.1455	-1
224.1	102.527	Inf	0.00223982	23.5522	23.5872	23.5171	32.6213	0.481778	0.585763	10.1461	-1
224.55	102.377	Inf	0.00224431	23.5529	23.573	23.5327	32.621	0.480711	0.528832	10.1452	-1
225	102.548	Inf	0.00224876	23.5686	23.5947	23.5424	32.6223	0.481616	0.532693	10.1454	-1
225.45	102.486	Inf	0.00225328	23.5559	23.5754	23.5364	32.6204	0.481271	0.56311	10.1454	-1
225.9	102.478	Inf	0.0022578	23.5602	23.5911	23.5293	32.6212	0.481181	0.605431	10.1453	-1
226.35	102.648	Inf	0.00226232	23.5581	23.5849	23.5313	32.6203	0.481302	0.559751	10.1451	-1
226.8	102.586	Inf	0.00226679	23.5425	23.5628	23.5222	32.6216	0.48084	0.515041	10.1451	-1
227.25	102.567	Inf	0.00227131	23.5652	23.589	23.5414	32.6213	0.481317	0.485432	10.1455	-1
227.7	102.642	Inf	0.0022758	23.5607	23.5808	23.5406	32.6217	0.481103	0.544136	10.1456	-1
228.15	102.689	Inf	0.00228031	23.5651	23.588	23.5422	32.6212	0.480973	0.575806	10.1453	-1
228.6	102.636	Inf	0.0022848	23.5625	23.5985	23.5266	32.621	0.480589	0.532969	10.1453	-1
229.05	102.723	Inf	0.00228932	23.5574	23.5809	23.5339	32.6207	0.48224	0.464507	10.1455	-1
229.5	102.721	Inf	0.00229381	23.5619	23.5913	23.5326	32.6216	0.480345	0.464446	10.1456	-1
229.95	102.737	Inf	0.00229829	23.5551	23.5796	23.5307	32.62	0.481767	0.516811	10.1454	-1
230.4	102.791	Inf	0.0023028	23.5559	23.5699	23.5419	32.6216	0.481725	0.561651	10.1455	-1
230.85	102.8	Inf	0.00230726	23.5656	23.5981	23.5332	32.6207	0.48169	0.567954	10.1453	-1
231.3	102.807	Inf	0.0023118	23.5584	23.5837	23.5331	32.6224	0.480915	0.552264	10.1454	-1
231.75	102.862	Inf	0.00231629	23.5612	23.5913	23.531	32.6221	0.481002	0.52285	10.1454	-1
232.2	102.923	Inf	0.0023208	23.5577	23.5855	23.5298	32.6214	0.481563	0.564918	10.1454	-1
232.65	102.965	Inf	0.00232529	23.5545	23.5868	23.5223	32.6213	0.481722	0.61081	10.1455	-1
233.1	103.007	Inf	0.00232979	23.555	23.5859	23.5241	32.6213	0.481391	0.638258	10.1457	-1
233.55	102.984	Inf	0.00233424	23.5651	23.5965	23.5337	32.6226	0.481194	0.547473	10.1453	-1
234	103.084	Inf	0.0023388	23.5686	23.6013	23.5359	32.6221	0.481721	0.506242	10.1456	-1
234.45	102.991	Inf	0.00234329	23.5704	23.5977	23.5431	32.6211	0.481065	0.502438	10.1457	-1
234.9	103.094	Inf	0.00234778	23.5797	23.6025	23.5569	32.6206	0.481377	0.539021	10.1455	-1
235.35	103.154	Inf	0.00235228	23.5655	23.6028	23.5283	32.6219	0.481763	0.527718	10.1461	-1
235.8	103.222	Inf	0.0023568	23.5571	23.5809	23.5333	32.6213	0.480839	0.500953	10.1455	-1
236.25	103.29	Inf	0.0023613	23.5417	23.5771	23.5064	32.6202	0.481828	0.464865	10.1454	-1
236.7	103.24	Inf	0.00236577	23.557	23.5816	23.5325	32.6223	0.480665	0.467483	10.1457	-1
237.15	103.364	Inf	0.00237027	23.5774	23.6156	23.5392	32.6218	0.481536	0.496442	10.1452	-1
237.6	103.328	Inf	0.00237477	23.568	23.6012	23.5348	32.6218	0.480624	0.51812	10.146	-1
238.05	103.468	Inf	0.00237929	23.5543	23.5778	23.5308	32.6232	0.482459	0.552237	10.1453	-1
238.5	103.384	Inf	0.00238369	23.5489	23.5706	23.5272	32.6213	0.480333	0.479797	10.1452	-1
238.95	103.381	Inf	0.00238829	23.5617	23.5902	23.5333	32.6218	0.481909	0.527056	10.1456	-1
239.4	103.376	Inf	0.00239278	23.5818	23.6203	23.5433	32.6227	0.481888	0.563887	10.1455	-1
239.85	103.43	Inf	0.00239726	23.5688	23.5854	23.5522	32.6201	0.48162	0.582023	10.1454	-1
240.3	103.378	Inf	0.00240169	23.5604	23.5798	23.5411	32.622	0.480946	0.603229	10.1453	-1
240.75	103.393	Inf	0.00240626	23.5479	23.5797	23.5161	32.6241	0.481019	0.569042	10.1455	-1
241.2	103.244	Inf	0.00241078	23.5596	23.5817	23.5375	32.6218	0.480958	0.511854	10.1453	-1
241.65	103.295	Inf	0.00241522	23.5642	23.588	23.5403	32.6234	0.480708	0.520411	10.1453	-1
242.1	-0.285435	-0.8485	0.00241972	23.569	23.6194	23.5186	32.6235	0.483128	0.296324	10.1437	-1
242.55	-0.246345	-0.910332	0.00242427	23.5733	23.6053	23.5412	32.6239	0.481936	0.342296	10.1435	-1
243	-0.218279	-0.913544	0.00242879	23.565	23.5984	23.5316	32.6216	0.481322	0.245305	10.1439	-1
243.45	-0.323977	-0.926353	0.00243326	23.5666	23.5974	23.5357	32.6234	0.482251	0.210725	10.1438	-1
243.9	-0.268103	-0.906509	0.00243775	23.5609	23.5783	23.5435	32.6223	0.482246	0.23346	10.1437	-1
244.05	-0.422669	-0.923259	0.00243921	23.5803	23.6027	23.558	32.6246	0.482519	0.237609	10.1442	-1