File: data/ReportRaw/Resin_TXT/Unknown_Resin_15Bi/Tensile_Test_03.txt
Program Started: Thu, Jul 18, 2024	11:47:51 AM	System: µTS4
Test Notes:

User displacement limits active. Low limit -20.000E-3 m, high limit 20.000E-3 m.
User load limits active. Low limit -1.600E+3 N, high limit 1.600E+3 N.

No closed loop control sensors in this test.

Test Segments:
 1. Ramp in Drive Control, +5.00E-3m Amplitude, 10.00E-6 m/s Speed. Sampling at 20.000 Hz, Lowpass Filter Cutoff of 100.000 Hz

Specimen Thickness (m): 	1.430E-3
Specimen Width (m): 	1.970E-3
Specimen Diameter (m): 	0.000E+0
Specimen Area (m^2): 	2.817E-6
Specimen Length (m): 	5.000E-3

Test Started: Thu, Jul 18, 2024	1:25:05 PM
Time (s)	LCFS1600 (N)	LCW1600 (N)	ECATENC (m)	SpecTemp (C)	AirTemp (C)	OutletTemp (C)	JTemp1600 (C)	GTemp1600 (C)	CUR (A)	Ve (V)	Trigger (#)
0.0000000000E+0	-0.119948	-0.646595	-6.79874e-06	23.6056	23.642	23.5692	32.6305	0.482043	0.128393	10.1443	-1
0.3	0.097325	-0.416988	-3.8694e-06	23.5993	23.6351	23.5635	32.63	0.481898	0.210493	10.1441	-1
0.6	0.260257	-0.304701	-9.36406e-07	23.5924	23.6245	23.5603	32.6299	0.482369	0.174917	10.1446	-1
0.9	0.289449	-0.238893	2.13622e-06	23.5989	23.6232	23.5746	32.6283	0.481632	0.145231	10.1441	-1
1.2	0.466777	-0.171001	5.07657e-06	23.5863	23.6072	23.5654	32.6292	0.48153	0.11081	10.1442	-1
1.5	0.46839	-0.114946	8.09167e-06	23.5867	23.6126	23.5607	32.6305	0.481299	0.102906	10.1441	-1
1.8	0.449757	-0.0709737	1.10456e-05	23.598	23.6203	23.5757	32.6298	0.482031	0.134707	10.1443	-1
2.1	0.539639	-0.000499416	1.41104e-05	23.6104	23.6305	23.5904	32.6297	0.481758	0.143623	10.1441	-1
2.4	0.556206	0.0533067	1.70546e-05	23.6023	23.628	23.5765	32.6295	0.48128	0.158805	10.1445	-1
2.7	0.691402	0.104576	2.01216e-05	23.5953	23.623	23.5677	32.6304	0.481261	0.156159	10.1442	-1
3	0.775703	0.186561	2.30547e-05	23.5923	23.6258	23.5588	32.6291	0.481902	0.13902	10.1442	-1
3.3	0.766966	0.237183	2.60958e-05	23.5798	23.6099	23.5497	32.6297	0.482098	0.119236	10.1444	-1
3.6	0.805613	0.286752	2.90685e-05	23.5855	23.606	23.565	32.631	0.481356	0.0969818	10.1442	-1
3.9	0.9185	0.374065	3.20461e-05	23.5995	23.6251	23.5739	32.6298	0.48145	0.093237	10.144	-1
4.2	1.03613	0.433663	3.50657e-05	23.5969	23.6169	23.5768	32.6304	0.481337	0.0923589	10.1443	-1
4.5	0.980442	0.487498	3.80799e-05	23.5981	23.6342	23.562	32.6288	0.482014	0.156341	10.1442	-1
4.8	1.1459	0.573143	4.10448e-05	23.6005	23.6251	23.5759	32.6294	0.481667	0.177509	10.144	-1
5.1	1.21534	0.633238	4.40675e-05	23.6018	23.6317	23.572	32.6296	0.48194	0.173126	10.1436	-1
5.4	1.20517	0.693264	4.70561e-05	23.6004	23.6347	23.5661	32.6311	0.481475	0.139774	10.1442	-1
5.7	1.2647	0.786855	5.00945e-05	23.5929	23.6207	23.5651	32.6307	0.481103	0.154452	10.1441	-1
6	1.4699	0.850515	5.30449e-05	23.5929	23.6238	23.5619	32.6286	0.481417	0.118908	10.1441	-1
6.3	1.44654	0.904508	5.60803e-05	23.6007	23.6186	23.5829	32.6276	0.481474	0.144042	10.1442	-1
6.6	1.60685	1.00419	5.90563e-05	23.6033	23.6382	23.5683	32.6298	0.482492	0.168128	10.144	-1
6.9	1.70085	1.07957	6.20899e-05	23.6038	23.642	23.5657	32.6319	0.480805	0.224393	10.1442	-1
7.2	1.73055	1.14744	6.50465e-05	23.5902	23.6306	23.5497	32.6295	0.481788	0.247168	10.1444	-1
7.5	1.84889	1.24997	6.80813e-05	23.5928	23.6147	23.5709	32.6308	0.481672	0.237141	10.144	-1
7.8	1.9161	1.32682	7.10493e-05	23.6002	23.6214	23.579	32.631	0.480914	0.225983	10.1441	-1
8.1	1.94515	1.39541	7.41014e-05	23.5992	23.631	23.5674	32.6316	0.481177	0.19714	10.1439	-1
8.4	2.02525	1.48686	7.70954e-05	23.6077	23.6377	23.5778	32.6312	0.482051	0.2003	10.1441	-1
8.7	2.12042	1.5566	8.00702e-05	23.6244	23.6489	23.6	32.6314	0.481586	0.190957	10.1442	-1
9	2.14353	1.63069	8.30721e-05	23.5959	23.6372	23.5545	32.6313	0.480312	0.192116	10.144	-1
9.3	2.32518	1.72752	8.60652e-05	23.6204	23.6634	23.5774	32.6298	0.481427	0.206368	10.1442	-1
9.6	2.43078	1.81131	8.90688e-05	23.6085	23.637	23.5799	32.6311	0.481102	0.228241	10.144	-1
9.9	2.35822	1.89121	9.20695e-05	23.5863	23.6375	23.535	32.6304	0.479654	0.22587	10.1439	-1
10.2	2.57245	1.99697	9.50994e-05	23.5985	23.6325	23.5646	32.6301	0.479614	0.18726	10.1438	-1
10.5	2.64805	2.07874	9.80978e-05	23.5972	23.6168	23.5776	32.6314	0.480898	0.1605	10.1444	-1
10.8	2.74285	2.16902	0.000101054	23.6042	23.6495	23.559	32.6308	0.481317	0.137087	10.1441	-1
11.1	2.70455	2.28241	0.000104063	23.5985	23.6339	23.5631	32.6316	0.483081	0.139286	10.1441	-1
11.4	3.06733	2.38237	0.000107071	23.5909	23.6224	23.5594	32.6313	0.481842	0.168632	10.1439	-1
11.7	3.08106	2.48798	0.000110078	23.6033	23.6363	23.5703	32.6315	0.480635	0.18386	10.1443	-1
12	3.1703	2.63083	0.000113074	23.6006	23.6411	23.56	32.6302	0.48126	0.208255	10.1443	-1
12.3	3.2571	2.73575	0.000116023	23.6009	23.6263	23.5755	32.6309	0.481662	0.187401	10.1443	-1
12.6	3.51552	2.87018	0.000119074	23.5988	23.6371	23.5604	32.6319	0.482406	0.178262	10.1441	-1
12.9	3.53916	3.02331	0.000122035	23.5974	23.6211	23.5737	32.6314	0.481768	0.152376	10.1442	-1
13.2	3.75896	3.16184	0.000125049	23.589	23.6155	23.5625	32.6305	0.480379	0.152471	10.1443	-1
13.5	3.88177	3.30408	0.000128034	23.5862	23.6172	23.5553	32.6305	0.481466	0.145404	10.1444	-1
13.8	3.92114	3.46653	0.000131036	23.601	23.625	23.577	32.6301	0.481248	0.173477	10.1442	-1
14.1	4.21834	3.62412	0.000134026	23.5857	23.6135	23.5578	32.6314	0.481558	0.200486	10.1444	-1
14.4	4.31036	3.77665	0.000137078	23.6045	23.6283	23.5808	32.6298	0.481453	0.210887	10.1443	-1
14.7	4.52272	3.95486	0.000140052	23.6016	23.6391	23.5641	32.6306	0.481001	0.193635	10.1442	-1
15	4.71566	4.10752	0.000143085	23.6096	23.6494	23.5698	32.6306	0.481339	0.157524	10.1445	-1
15.3	4.7828	4.26544	0.000146039	23.5997	23.6264	23.573	32.6316	0.480859	0.135624	10.1449	-1
15.6	5.05944	4.44364	0.000149056	23.5969	23.6268	23.5671	32.6291	0.48146	0.144848	10.1442	-1
15.9	5.24178	4.61828	0.000152037	23.6055	23.6259	23.5851	32.6311	0.481464	0.143213	10.1446	-1
16.2	5.35083	4.77415	0.000155048	23.5901	23.6291	23.5512	32.631	0.481461	0.197151	10.1446	-1
16.5	5.46596	4.96285	0.000158039	23.5994	23.6299	23.569	32.6304	0.480685	0.214279	10.145	-1
16.8	5.69441	5.13021	0.000161075	23.6008	23.6331	23.5685	32.631	0.481118	0.223652	10.1448	-1
17.1	5.8532	5.30737	0.000164021	23.6036	23.6311	23.576	32.6312	0.480664	0.219984	10.1442	-1
17.4	6.10097	5.50795	0.000167048	23.6023	23.6324	23.5722	32.631	0.480906	0.195521	10.1445	-1
17.7	6.24072	5.68222	0.00017007	23.5996	23.6323	23.5669	32.6311	0.482306	0.156351	10.1447	-1
18	6.36994	5.86809	0.000173034	23.5942	23.6261	23.5624	32.6305	0.481678	0.147255	10.1446	-1
18.3	6.53871	6.06525	0.000176042	23.5911	23.6214	23.5608	32.6325	0.482406	0.140184	10.1445	-1
18.6	6.79416	6.25891	0.000179028	23.5921	23.6192	23.565	32.6307	0.4814	0.146779	10.1446	-1
18.9	6.98126	6.44218	0.000182019	23.6034	23.6368	23.5701	32.6314	0.480889	0.151018	10.1445	-1
19.2	7.20835	6.66392	0.00018509	23.5988	23.627	23.5706	32.6302	0.481442	0.177057	10.1442	-1
19.5	7.4526	6.87176	0.000188041	23.5964	23.6242	23.5685	32.6308	0.481159	0.13974	10.1447	-1
19.8	7.66152	7.0742	0.000191076	23.5956	23.625	23.5661	32.6309	0.481141	0.109188	10.1444	-1
20.1	7.78974	7.30205	0.000194071	23.5991	23.6307	23.5675	32.6307	0.480768	0.0814178	10.1444	-1
20.4	8.09614	7.51598	0.000197076	23.5944	23.6205	23.5682	32.6297	0.481447	0.0873623	10.1448	-1
20.7	8.27556	7.71584	0.000200011	23.603	23.6278	23.5782	32.6314	0.480206	0.0535645	10.1447	-1
21	8.52133	7.94609	0.000203053	23.6059	23.6369	23.5748	32.632	0.480726	0.102725	10.1443	-1
21.3	8.67471	8.16345	0.000206053	23.5943	23.6329	23.5558	32.6304	0.480364	0.167604	10.1445	-1
21.6	8.95832	8.37749	0.000209067	23.5863	23.6179	23.5546	32.631	0.480139	0.148444	10.1443	-1
21.9	9.16659	8.63565	0.000212034	23.5923	23.6148	23.5699	32.6323	0.480803	0.186511	10.1449	-1
22.2	9.41378	8.84705	0.000215051	23.6011	23.6283	23.5738	32.631	0.480793	0.146717	10.1452	-1
22.5	9.66288	9.04883	0.000218003	23.6072	23.6348	23.5796	32.6313	0.481019	0.14597	10.1444	-1
22.8	9.88142	9.29914	0.000221025	23.5882	23.6102	23.5662	32.6309	0.480961	0.134907	10.1448	-1
23.1	10.0911	9.53789	0.00022404	23.5964	23.6236	23.5692	32.6309	0.480719	0.174753	10.1446	-1
23.4	10.3166	9.76936	0.000227001	23.6057	23.6292	23.5822	32.631	0.481714	0.182025	10.145	-1
23.7	10.5795	10.0379	0.00023	23.5997	23.6373	23.562	32.6308	0.480958	0.20532	10.1448	-1
24	10.8181	10.2727	0.000233007	23.5955	23.6156	23.5754	32.6302	0.481484	0.270319	10.1447	-1
24.3	11.07	10.5204	0.000236027	23.6153	23.6348	23.5959	32.6326	0.481769	0.198174	10.1448	-1
24.6	11.342	10.7979	0.00023908	23.6115	23.6535	23.5695	32.6303	0.481072	0.160042	10.1443	-1
24.9	11.5441	11.0244	0.00024202	23.5942	23.6227	23.5657	32.6303	0.480757	0.138849	10.1449	-1
25.2	11.8455	11.281	0.000245005	23.6079	23.6262	23.5897	32.6316	0.480789	0.136329	10.1446	-1
25.5	12.1824	11.5471	0.000248059	23.5981	23.6205	23.5757	32.6308	0.480762	0.145167	10.1444	-1
25.8	12.4099	11.8035	0.000250986	23.6066	23.642	23.5712	32.6307	0.481488	0.183925	10.1446	-1
26.1	12.7072	12.0628	0.000254008	23.6129	23.6456	23.5802	32.631	0.48181	0.206059	10.1447	-1
26.4	12.8626	12.369	0.000257005	23.5968	23.6131	23.5806	32.6302	0.480947	0.182707	10.1449	-1
26.7	13.2176	12.6321	0.000260011	23.5978	23.627	23.5687	32.6312	0.481677	0.209531	10.1446	-1
27	13.5656	12.9229	0.000263015	23.5861	23.6044	23.5679	32.6321	0.480834	0.211812	10.1448	-1
27.3	13.784	13.2247	0.000266	23.5901	23.6266	23.5536	32.6314	0.48085	0.163244	10.145	-1
27.6	14.1824	13.4783	0.000269016	23.6174	23.658	23.5768	32.6324	0.481125	0.125642	10.1449	-1
27.9	14.2091	13.7543	0.000272007	23.5976	23.6176	23.5776	32.6312	0.48096	0.148537	10.1446	-1
28.2	14.6007	14.0452	0.000274979	23.5898	23.6182	23.5614	32.6321	0.480903	0.165098	10.1452	-1
28.5	14.9347	14.3304	0.000278029	23.5951	23.6232	23.5669	32.6308	0.481382	0.203607	10.1451	-1
28.8	15.1998	14.6222	0.00028101	23.6026	23.6198	23.5854	32.6317	0.479746	0.207017	10.1449	-1
29.1	15.46	14.9515	0.000284056	23.5782	23.605	23.5514	32.6305	0.480787	0.176059	10.1448	-1
29.4	15.7516	15.2046	0.000287014	23.5907	23.6224	23.5591	32.6304	0.480794	0.161019	10.145	-1
29.7	16.0824	15.5266	0.00029005	23.5986	23.6134	23.5838	32.6308	0.482243	0.140596	10.1451	-1
30	16.413	15.8616	0.000292993	23.606	23.6315	23.5805	32.6329	0.481826	0.116622	10.1447	-1
30.3	16.8276	16.1547	0.000296053	23.6036	23.6256	23.5816	32.6312	0.481104	0.161013	10.145	-1
30.6	16.9735	16.4376	0.000299002	23.5947	23.6213	23.5682	32.6302	0.480673	0.152951	10.1457	-1
30.9	17.3506	16.789	0.000302015	23.603	23.6236	23.5824	32.6331	0.480611	0.246038	10.145	-1
31.2	17.7412	17.1093	0.000305036	23.5953	23.6213	23.5693	32.6322	0.48088	0.235655	10.1445	-1
31.5	18.066	17.4498	0.000308006	23.5916	23.6138	23.5694	32.632	0.481284	0.233038	10.1449	-1
31.8	18.3505	17.7955	0.000310993	23.5951	23.618	23.5721	32.6305	0.480515	0.216045	10.1451	-1
32.1	18.7253	18.1193	0.000314007	23.5908	23.631	23.5506	32.6322	0.481204	0.203134	10.1451	-1
32.4	18.956	18.451	0.000317059	23.582	23.5992	23.5648	32.6307	0.481051	0.205581	10.1451	-1
32.7	19.4015	18.8234	0.000319963	23.5885	23.6186	23.5584	32.6322	0.481663	0.227419	10.1454	-1
33	19.7113	19.1394	0.000323036	23.5886	23.6018	23.5753	32.631	0.481683	0.297627	10.1457	-1
33.3	19.9595	19.4666	0.000326025	23.6045	23.6297	23.5793	32.6307	0.481315	0.30641	10.1451	-1
33.6	20.3923	19.865	0.000328995	23.6074	23.6368	23.5781	32.6319	0.480125	0.306847	10.145	-1
33.9	20.7761	20.2371	0.000332027	23.5917	23.6235	23.5598	32.6313	0.481419	0.289098	10.1453	-1
34.2	21.0829	20.5581	0.00033505	23.6128	23.6398	23.5859	32.6311	0.480399	0.257215	10.1452	-1
34.5	21.4754	20.9081	0.000338045	23.5987	23.628	23.5694	32.6312	0.480595	0.230439	10.1448	-1
34.8	21.8169	21.2398	0.000341012	23.5896	23.6111	23.5681	32.6312	0.480844	0.222783	10.1453	-1
35.1	22.1728	21.5734	0.000343991	23.6086	23.6208	23.5964	32.6312	0.481903	0.232262	10.1457	-1
35.4	22.4675	21.9717	0.000347005	23.5939	23.6195	23.5683	32.6313	0.480847	0.262395	10.1454	-1
35.7	22.8739	22.3348	0.00034997	23.6093	23.6336	23.5851	32.6316	0.481007	0.267394	10.1455	-1
36	23.2251	22.6855	0.000353007	23.5959	23.6217	23.57	32.6335	0.481159	0.292935	10.1455	-1
36.3	23.7307	23.0342	0.000356039	23.6155	23.6545	23.5766	32.6325	0.481132	0.277404	10.1458	-1
36.6	23.8546	23.3562	0.000358994	23.609	23.645	23.5731	32.6314	0.480993	0.232356	10.1453	-1
36.9	24.2909	23.6727	0.000362002	23.5933	23.6277	23.5589	32.6313	0.481141	0.209368	10.1458	-1
37.2	24.6384	24.0604	0.000365021	23.6057	23.6348	23.5765	32.6307	0.480281	0.228213	10.1453	-1
37.5	24.933	24.4085	0.000368006	23.614	23.6522	23.5757	32.6321	0.48037	0.241634	10.1457	-1
37.8	25.3183	24.7362	0.000371004	23.5962	23.6277	23.5648	32.631	0.480982	0.288198	10.1453	-1
38.1	25.6985	25.1214	0.000373984	23.592	23.6183	23.5656	32.6306	0.480933	0.314785	10.1456	-1
38.4	26.0816	25.5142	0.000376986	23.6048	23.6318	23.5779	32.6337	0.480284	0.298494	10.1453	-1
38.7	26.4745	25.8725	0.000380007	23.6018	23.6361	23.5675	32.6334	0.48078	0.289952	10.1457	-1
39	26.9101	26.2703	0.00038302	23.5865	23.6195	23.5535	32.6314	0.479963	0.281706	10.1457	-1
39.3	27.1217	26.6302	0.000385988	23.602	23.6344	23.5695	32.6326	0.480194	0.226237	10.1459	-1
39.6	27.5011	26.9599	0.000388984	23.5947	23.6087	23.5807	32.633	0.48056	0.247481	10.1456	-1
39.9	27.8884	27.3668	0.000391949	23.5899	23.6119	23.5678	32.633	0.47963	0.294287	10.1456	-1
40.2	28.3354	27.7709	0.000395006	23.6142	23.6428	23.5855	32.6322	0.479962	0.308621	10.1455	-1
40.5	28.747	28.1868	0.000398	23.5905	23.6047	23.5763	32.6304	0.480673	0.369498	10.1457	-1
40.8	29.2383	28.6572	0.000401037	23.6251	23.6541	23.596	32.6313	0.479619	0.343976	10.1459	-1
41.1	29.713	29.1293	0.00040401	23.5917	23.6199	23.5635	32.6319	0.480346	0.368405	10.1458	-1
41.4	30.0431	29.4546	0.000407029	23.5986	23.6313	23.5658	32.6312	0.480152	0.31703	10.1462	-1
41.7	30.3908	29.851	0.000409976	23.5932	23.6253	23.5612	32.632	0.480477	0.305572	10.1462	-1
42	30.8032	30.2013	0.000413021	23.5866	23.6238	23.5494	32.632	0.479442	0.285935	10.1463	-1
42.3	31.1727	30.5435	0.000415988	23.6009	23.6223	23.5796	32.6301	0.480812	0.339357	10.1463	-1
42.6	31.4039	30.9142	0.000419028	23.5938	23.6216	23.566	32.6324	0.481379	0.341382	10.146	-1
42.9	31.8848	31.2681	0.000421934	23.606	23.6292	23.5827	32.6322	0.480528	0.355199	10.1463	-1
43.2	32.287	Inf	0.000425026	23.5968	23.615	23.5785	32.6331	0.480139	0.352255	10.1459	-1
43.5	32.5237	Inf	0.000427981	23.6032	23.6399	23.5665	32.6324	0.479791	0.316065	10.1463	-1
43.8	33.0199	Inf	0.00043103	23.5848	23.6213	23.5482	32.6314	0.479583	0.266784	10.1457	-1
44.1	33.3954	Inf	0.000433991	23.5848	23.605	23.5646	32.631	0.479925	0.26728	10.146	-1
44.4	33.7626	Inf	0.000436969	23.6039	23.6258	23.5819	32.6325	0.479771	0.246632	10.1464	-1
44.7	34.1669	Inf	0.00043998	23.6015	23.6301	23.5729	32.6325	0.480745	0.312842	10.1461	-1
45	34.4779	Inf	0.000442938	23.6005	23.6353	23.5656	32.6317	0.479751	0.3085	10.1463	-1
45.3	34.7634	Inf	0.000445962	23.6	23.6172	23.5829	32.6333	0.481771	0.339654	10.1462	-1
45.6	35.0625	Inf	0.000448975	23.5985	23.6302	23.5669	32.632	0.479657	0.33379	10.1461	-1
45.9	35.3548	Inf	0.000452008	23.6077	23.6314	23.5839	32.6332	0.480234	0.346207	10.1459	-1
46.2	35.7228	Inf	0.000455	23.5814	23.6197	23.5431	32.6327	0.479378	0.267002	10.1464	-1
46.5	36.2297	Inf	0.000457973	23.602	23.6188	23.5851	32.6313	0.481137	0.244076	10.1459	-1
46.8	36.5138	Inf	0.000460986	23.6113	23.6367	23.5859	32.632	0.480895	0.244495	10.1458	-1
47.1	36.9	Inf	0.000464026	23.6055	23.6311	23.58	32.6315	0.48026	0.271316	10.1465	-1
47.4	37.3548	Inf	0.00046694	23.5852	23.6081	23.5622	32.6315	0.480259	0.279342	10.1464	-1
47.7	37.6934	Inf	0.000469978	23.6066	23.6438	23.5693	32.6325	0.480998	0.322352	10.1459	-1
48	38.0857	Inf	0.000472951	23.5993	23.623	23.5756	32.632	0.480428	0.301697	10.1464	-1
48.3	38.1299	Inf	0.00047599	23.5873	23.6053	23.5694	32.6326	0.480735	0.290457	10.1463	-1
48.6	38.4114	Inf	0.000478947	23.595	23.6318	23.5582	32.6329	0.479854	0.264594	10.1459	-1
48.9	38.7482	Inf	0.000481985	23.5955	23.6189	23.572	32.6337	0.480796	0.2392	10.1463	-1
49.2	39.0432	Inf	0.000485004	23.613	23.6273	23.5988	32.633	0.480489	0.265341	10.146	-1
49.5	39.3126	Inf	0.000487973	23.6	23.6299	23.57	32.6328	0.480638	0.278412	10.1462	-1
49.8	39.6942	Inf	0.000490957	23.6045	23.6269	23.5822	32.6322	0.480716	0.332865	10.1456	-1
50.1	39.8969	Inf	0.000493989	23.6095	23.6368	23.5822	32.6337	0.480198	0.356286	10.1461	-1
50.4	40.2348	Inf	0.000496962	23.5898	23.625	23.5546	32.633	0.479637	0.358845	10.1462	-1
50.7	40.6007	Inf	0.000499983	23.5902	23.6228	23.5576	32.6339	0.481188	0.339374	10.146	-1
51	40.9594	Inf	0.000502946	23.5936	23.6299	23.5572	32.6323	0.48111	0.299315	10.1466	-1
51.3	41.3065	Inf	0.00050599	23.5967	23.6185	23.5749	32.6318	0.480169	0.265016	10.1461	-1
51.6	41.5326	Inf	0.000508937	23.5868	23.6068	23.5669	32.6322	0.47964	0.246769	10.1466	-1
51.9	41.9775	Inf	0.000511958	23.5914	23.6253	23.5576	32.632	0.479529	0.246259	10.1463	-1
52.2	42.1729	Inf	0.000514943	23.6096	23.6253	23.5938	32.6333	0.480194	0.264424	10.1459	-1
52.5	42.4247	Inf	0.000517966	23.607	23.6242	23.5899	32.6332	0.480594	0.250199	10.146	-1
52.8	42.6881	Inf	0.000520959	23.5889	23.618	23.5597	32.6332	0.481398	0.235547	10.146	-1
53.1	42.8254	Inf	0.00052401	23.598	23.6267	23.5693	32.6333	0.47922	0.195148	10.1457	-1
53.4	43.0208	Inf	0.00052694	23.5943	23.6357	23.553	32.6324	0.479449	0.166136	10.1464	-1
53.7	43.2775	Inf	0.000529977	23.5853	23.6327	23.5379	32.6332	0.480568	0.15617	10.1463	-1
54	43.4975	Inf	0.000532927	23.5861	23.6201	23.552	32.6323	0.480161	0.177	10.1463	-1
54.3	43.8177	Inf	0.000535965	23.6107	23.6321	23.5894	32.6326	0.47943	0.206651	10.146	-1
54.6	44.0389	Inf	0.000538913	23.6051	23.6353	23.5749	32.6324	0.480638	0.25798	10.1463	-1
54.9	44.3057	Inf	0.000541949	23.589	23.6084	23.5696	32.6324	0.479977	0.29814	10.1464	-1
55.2	44.4849	Inf	0.000544948	23.5822	23.6104	23.554	32.6339	0.479975	0.278961	10.1465	-1
55.5	44.8156	Inf	0.000547949	23.613	23.649	23.577	32.6327	0.479788	0.259259	10.146	-1
55.8	44.9331	Inf	0.000550932	23.5803	23.613	23.5476	32.6336	0.479858	0.253949	10.1458	-1
56.1	45.3071	Inf	0.000553945	23.5898	23.6315	23.5482	32.6322	0.480485	0.236604	10.1464	-1
56.4	45.5455	Inf	0.000556959	23.6034	23.638	23.5688	32.6321	0.479631	0.293307	10.1459	-1
56.7	45.6584	Inf	0.000559945	23.5958	23.6264	23.5651	32.633	0.480935	0.269776	10.1462	-1
57	45.9164	Inf	0.000562983	23.5913	23.612	23.5705	32.632	0.480762	0.292456	10.1462	-1
57.3	46.1996	Inf	0.000565926	23.5859	23.6179	23.5539	32.6319	0.480132	0.309622	10.1463	-1
57.6	46.4411	Inf	0.000568957	23.5975	23.6345	23.5605	32.6327	0.479938	0.282471	10.1464	-1
57.9	46.7069	Inf	0.000571939	23.6153	23.6404	23.5903	32.6318	0.480303	0.252083	10.1462	-1
58.2	46.9589	Inf	0.000574939	23.5828	23.6192	23.5464	32.6314	0.479681	0.194805	10.1465	-1
58.5	47.16	Inf	0.000577941	23.6062	23.6243	23.5881	32.6322	0.478368	0.216404	10.1464	-1
58.8	47.7315	Inf	0.000580952	23.6002	23.6329	23.5675	32.6323	0.479849	0.242382	10.1462	-1
59.1	47.7792	Inf	0.000583931	23.5956	23.6358	23.5555	32.6336	0.479811	0.269749	10.1458	-1
59.4	48.1111	Inf	0.000586973	23.6023	23.6464	23.5581	32.6328	0.47834	0.259482	10.146	-1
59.7	48.4638	Inf	0.000589933	23.6103	23.623	23.5977	32.6323	0.479974	0.280931	10.1461	-1
60	48.6487	Inf	0.000592955	23.6077	23.64	23.5754	32.6333	0.480423	0.283788	10.1463	-1
60.3	48.9849	Inf	0.00059594	23.6015	23.6484	23.5546	32.6324	0.479895	0.287048	10.1459	-1
60.6	49.214	Inf	0.000598949	23.579	23.6226	23.5353	32.6315	0.478663	0.252692	10.1462	-1
60.9	49.4534	Inf	0.000601936	23.6044	23.6277	23.581	32.631	0.480443	0.245082	10.1461	-1
61.2	49.7055	Inf	0.000604957	23.6006	23.6057	23.5955	32.6347	0.480437	0.21879	10.1458	-1
61.5	50.0008	Inf	0.000607911	23.5931	23.6226	23.5637	32.6347	0.479952	0.248654	10.1459	-1
61.8	50.2579	Inf	0.000610957	23.6069	23.6351	23.5787	32.6332	0.480146	0.267107	10.1462	-1
62.1	50.4898	Inf	0.000613914	23.6104	23.6329	23.5878	32.6318	0.480272	0.264623	10.1464	-1
62.4	50.6958	Inf	0.000616986	23.5954	23.6263	23.5645	32.6329	0.480074	0.243401	10.1463	-1
62.7	51.0656	Inf	0.000619933	23.5964	23.6296	23.5633	32.6342	0.479782	0.224219	10.1459	-1
63	51.1744	Inf	0.000622981	23.603	23.6111	23.5948	32.6327	0.481108	0.180018	10.146	-1
63.3	51.5523	Inf	0.000625906	23.6081	23.6382	23.5779	32.6345	0.479962	0.191137	10.146	-1
63.6	51.7488	Inf	0.000628927	23.6113	23.6349	23.5877	32.6351	0.479444	0.22216	10.1462	-1
63.9	51.9942	Inf	0.000631878	23.6006	23.6295	23.5717	32.6322	0.479742	0.268282	10.1462	-1
64.2	52.1381	Inf	0.000634905	23.6034	23.6274	23.5794	32.6338	0.480292	0.299956	10.1457	-1
64.5	52.5122	Inf	0.000637896	23.5936	23.6211	23.566	32.6335	0.480634	0.315394	10.1459	-1
64.8	52.7984	Inf	0.000640954	23.6078	23.6337	23.5818	32.6337	0.479576	0.309812	10.1465	-1
65.1	53.0226	Inf	0.000643904	23.5986	23.6225	23.5748	32.6348	0.480736	0.304307	10.1462	-1
65.4	53.26	Inf	0.000646916	23.5948	23.6249	23.5648	32.6337	0.480008	0.250786	10.1461	-1
65.7	53.5833	Inf	0.000649903	23.5987	23.6194	23.5781	32.6329	0.48056	0.267267	10.1462	-1
66	53.8119	Inf	0.000652961	23.6008	23.6323	23.5694	32.6313	0.481099	0.289486	10.1466	-1
66.3	54.1947	Inf	0.000655902	23.5994	23.6279	23.5709	32.634	0.479886	0.312867	10.1462	-1
66.6	54.3715	Inf	0.000658903	23.6114	23.6357	23.5871	32.6327	0.480101	0.342462	10.1462	-1
66.9	54.7447	Inf	0.000661905	23.5957	23.6231	23.5683	32.6343	0.478537	0.337006	10.1462	-1
67.2	54.9799	Inf	0.000664942	23.6025	23.6327	23.5723	32.6333	0.479995	0.328148	10.1465	-1
67.5	55.1703	Inf	0.000667914	23.6152	23.643	23.5874	32.6325	0.479621	0.290774	10.1463	-1
67.8	55.5006	Inf	0.000670927	23.6044	23.6311	23.5776	32.6337	0.479789	0.248767	10.1461	-1
68.1	55.7168	Inf	0.000673915	23.6118	23.6418	23.5819	32.6335	0.480467	0.255053	10.1461	-1
68.4	56.0249	Inf	0.000676935	23.6199	23.6477	23.5921	32.633	0.479984	0.259982	10.1468	-1
68.7	56.2754	Inf	0.000679884	23.5878	23.6073	23.5684	32.6335	0.479118	0.294146	10.1462	-1
69	56.5577	Inf	0.000682886	23.6013	23.63	23.5726	32.6344	0.479566	0.330456	10.1465	-1
69.3	56.7829	Inf	0.000685905	23.6192	23.6378	23.6005	32.6329	0.480008	0.306277	10.146	-1
69.6	57.0859	Inf	0.000688909	23.6192	23.6408	23.5977	32.6319	0.480287	0.32289	10.1458	-1
69.9	57.3412	Inf	0.000691909	23.6041	23.6306	23.5776	32.6354	0.480246	0.274266	10.1467	-1
70.2	57.7852	Inf	0.000694899	23.6114	23.6373	23.5854	32.6342	0.479572	0.247369	10.1461	-1
70.5	58.0683	Inf	0.000697893	23.6004	23.6298	23.571	32.6341	0.480519	0.236098	10.146	-1
70.8	58.4841	Inf	0.000700904	23.5997	23.6256	23.5738	32.6322	0.479419	0.257864	10.1461	-1
71.1	58.8522	Inf	0.000703913	23.6052	23.64	23.5704	32.634	0.480241	0.310291	10.1459	-1
71.4	59.1954	Inf	0.000706883	23.6101	23.6462	23.5739	32.633	0.479343	0.320043	10.1461	-1
71.7	59.4903	Inf	0.000709902	23.6068	23.6429	23.5708	32.634	0.478836	0.353762	10.146	-1
72	59.8538	Inf	0.000712917	23.5995	23.6276	23.5715	32.6336	0.47955	0.308163	10.1459	-1
72.3	60.171	Inf	0.000715906	23.603	23.6208	23.5851	32.6334	0.480065	0.284279	10.146	-1
72.6	60.4319	Inf	0.000718892	23.6014	23.6254	23.5773	32.6337	0.479041	0.281075	10.1464	-1
72.9	60.7232	Inf	0.00072189	23.6028	23.6301	23.5755	32.6341	0.480056	0.297541	10.1465	-1
73.2	61.1786	Inf	0.000724881	23.6044	23.6315	23.5773	32.6339	0.480097	0.344532	10.146	-1
73.5	61.4055	Inf	0.00072788	23.6087	23.6314	23.5861	32.6349	0.480348	0.355159	10.1462	-1
73.8	61.7739	Inf	0.000730874	23.6035	23.6286	23.5783	32.6337	0.479399	0.413309	10.1463	-1
74.1	61.9339	Inf	0.000733911	23.5958	23.6104	23.5813	32.6337	0.480115	0.441046	10.1459	-1
74.4	62.1854	Inf	0.000736895	23.5982	23.6235	23.573	32.6337	0.48042	0.43089	10.146	-1
74.7	62.4931	Inf	0.000739947	23.6074	23.6372	23.5775	32.6339	0.480301	0.398504	10.1462	-1
75	62.8214	Inf	0.00074289	23.6194	23.6457	23.5931	32.6345	0.480122	0.321947	10.1463	-1
75.3	63.1469	Inf	0.000745941	23.6012	23.623	23.5795	32.6333	0.479727	0.349913	10.146	-1
75.6	63.3983	Inf	0.000748865	23.6062	23.6385	23.5738	32.6334	0.479243	0.376749	10.1463	-1
75.9	63.7911	Inf	0.000751885	23.6076	23.6285	23.5868	32.6331	0.479834	0.386235	10.1463	-1
76.2	64.0722	Inf	0.000754896	23.5936	23.6241	23.5631	32.6347	0.480115	0.401186	10.1462	-1
76.5	64.2963	Inf	0.000757884	23.6096	23.6344	23.5847	32.6334	0.480361	0.389277	10.1464	-1
76.8	64.7011	Inf	0.000760883	23.6039	23.6246	23.5832	32.6344	0.480402	0.391337	10.1462	-1
77.1	64.9819	Inf	0.000763929	23.6136	23.643	23.5842	32.6336	0.479755	0.336337	10.1465	-1
77.4	65.2927	Inf	0.000766887	23.6012	23.6285	23.5739	32.6342	0.479618	0.277656	10.1463	-1
77.7	65.6123	Inf	0.000769894	23.6105	23.6487	23.5724	32.6329	0.480428	0.302084	10.1458	-1
78	65.8589	Inf	0.000772873	23.6022	23.6314	23.5731	32.6341	0.479614	0.314158	10.1462	-1
78.3	66.2671	Inf	0.000775878	23.6025	23.6315	23.5734	32.6335	0.48028	0.384682	10.1463	-1
78.6	66.4547	Inf	0.000778874	23.6019	23.6318	23.5719	32.6342	0.480962	0.387131	10.1463	-1
78.9	66.7464	Inf	0.000781896	23.6186	23.6521	23.5852	32.6339	0.480847	0.416007	10.146	-1
79.2	67.0247	Inf	0.000784875	23.6059	23.6344	23.5774	32.634	0.479118	0.388506	10.1463	-1
79.5	67.3253	Inf	0.000787864	23.609	23.635	23.583	32.6334	0.480142	0.37323	10.1458	-1
79.8	67.5805	Inf	0.000790876	23.6038	23.6284	23.5792	32.6341	0.479737	0.33054	10.1463	-1
80.1	67.8606	Inf	0.000793871	23.6182	23.6435	23.5928	32.6333	0.480098	0.314593	10.1461	-1
80.4	68.2289	Inf	0.000796889	23.6055	23.6401	23.571	32.6338	0.480928	0.356429	10.1462	-1
80.7	68.4991	Inf	0.000799878	23.596	23.6344	23.5576	32.6343	0.480028	0.389431	10.1461	-1
81	68.8092	Inf	0.000802877	23.6106	23.6456	23.5757	32.6337	0.480098	0.36569	10.1462	-1
81.3	69.18	Inf	0.000805875	23.6133	23.6448	23.5817	32.6337	0.479456	0.391324	10.146	-1
81.6	69.457	Inf	0.0008089	23.6102	23.6347	23.5857	32.6337	0.479653	0.367771	10.1463	-1
81.9	69.7041	Inf	0.000811911	23.6043	23.6428	23.5659	32.6346	0.480065	0.333122	10.1462	-1
82.2	69.9958	Inf	0.000814871	23.5995	23.6295	23.5696	32.636	0.480119	0.319251	10.1461	-1
82.5	70.2422	Inf	0.000817872	23.6134	23.6453	23.5814	32.6348	0.479618	0.343035	10.1461	-1
82.8	70.475	Inf	0.000820872	23.6015	23.6265	23.5765	32.6343	0.47963	0.373111	10.1463	-1
83.1	70.8124	Inf	0.00082387	23.6094	23.6324	23.5865	32.6337	0.479779	0.443529	10.1463	-1
83.4	71.0097	Inf	0.000826894	23.6075	23.6336	23.5815	32.6344	0.480765	0.459473	10.1464	-1
83.7	71.288	Inf	0.000829864	23.6233	23.643	23.6036	32.6346	0.479394	0.46658	10.1466	-1
84	71.5485	Inf	0.000832896	23.5972	23.6137	23.5808	32.6337	0.480134	0.429383	10.1461	-1
84.3	71.8053	Inf	0.000835865	23.6199	23.6441	23.5957	32.634	0.480089	0.385236	10.1463	-1
84.6	71.9375	Inf	0.00083887	23.6178	23.637	23.5986	32.6345	0.480429	0.384354	10.1463	-1
84.9	72.2218	Inf	0.000841874	23.6084	23.6403	23.5764	32.635	0.481123	0.360743	10.1465	-1
85.2	72.4906	Inf	0.000844897	23.604	23.6398	23.5683	32.6336	0.479538	0.389752	10.1462	-1
85.5	72.7155	Inf	0.00084786	23.6177	23.6525	23.583	32.6354	0.480268	0.413572	10.1461	-1
85.8	73.0804	Inf	0.000850861	23.6206	23.6488	23.5924	32.6335	0.480611	0.406619	10.1467	-1
86.1	73.3006	Inf	0.000853862	23.6053	23.6346	23.5759	32.6352	0.47976	0.367844	10.1462	-1
86.4	73.416	Inf	0.000856882	23.6044	23.6289	23.5799	32.6352	0.479775	0.352262	10.1457	-1
86.7	73.7503	Inf	0.000859873	23.6155	23.6371	23.594	32.6354	0.479468	0.310756	10.1461	-1
87	74.1031	Inf	0.000862873	23.5917	23.6156	23.5679	32.6353	0.479605	0.298142	10.1462	-1
87.3	74.2478	Inf	0.000865853	23.6114	23.6369	23.5858	32.6337	0.479123	0.29821	10.1459	-1
87.6	74.5388	Inf	0.000868844	23.6032	23.6397	23.5666	32.6343	0.479796	0.364764	10.1466	-1
87.9	74.7801	Inf	0.000871863	23.6201	23.6436	23.5966	32.6349	0.480049	0.385634	10.146	-1
88.2	75.0161	Inf	0.000874845	23.5953	23.6194	23.5713	32.6349	0.479789	0.420009	10.1462	-1
88.5	75.3322	Inf	0.00087789	23.6079	23.6356	23.5802	32.6347	0.479986	0.474412	10.1462	-1
88.8	75.4574	Inf	0.000880871	23.6061	23.6423	23.5698	32.635	0.479519	0.436023	10.1461	-1
89.1	75.7095	Inf	0.000883879	23.6032	23.6322	23.5742	32.6346	0.479932	0.440787	10.146	-1
89.4	75.9646	Inf	0.00088687	23.5962	23.62	23.5724	32.6347	0.479614	0.43273	10.1462	-1
89.7	76.2842	Inf	0.000889876	23.605	23.6321	23.5779	32.6354	0.480475	0.477684	10.146	-1
90	76.4405	Inf	0.000892845	23.6172	23.648	23.5865	32.634	0.48086	0.481437	10.146	-1
90.3	76.7415	Inf	0.000895843	23.6033	23.6322	23.5745	32.6356	0.479811	0.525873	10.1462	-1
90.6	76.8865	Inf	0.000898839	23.5961	23.6275	23.5646	32.6339	0.479852	0.532098	10.1459	-1
90.9	77.0811	Inf	0.000901848	23.6188	23.6336	23.6039	32.6351	0.479477	0.501318	10.1462	-1
91.2	77.3559	Inf	0.000904847	23.5882	23.6232	23.5532	32.6366	0.480196	0.481069	10.1461	-1
91.5	77.6331	Inf	0.000907866	23.6035	23.6272	23.5798	32.6357	0.479447	0.452858	10.1463	-1
91.8	77.7689	Inf	0.000910849	23.6033	23.6253	23.5812	32.6349	0.480502	0.416802	10.1461	-1
92.1	78.0502	Inf	0.000913834	23.6149	23.6383	23.5915	32.6341	0.479852	0.442106	10.146	-1
92.4	78.2497	Inf	0.000916816	23.6078	23.6391	23.5764	32.6341	0.480492	0.468785	10.1463	-1
92.7	78.443	Inf	0.000919829	23.5986	23.6236	23.5736	32.6348	0.479971	0.499831	10.1464	-1
93	78.6618	Inf	0.000922846	23.5989	23.6262	23.5717	32.6347	0.479828	0.491922	10.1461	-1
93.3	78.8905	Inf	0.000925848	23.6066	23.6293	23.584	32.6351	0.480441	0.516514	10.1462	-1
93.6	79.0265	Inf	0.00092887	23.5969	23.6195	23.5742	32.6353	0.480186	0.495607	10.1459	-1
93.9	79.2486	Inf	0.000931835	23.6106	23.6432	23.578	32.6354	0.479745	0.446825	10.1459	-1
94.2	79.5421	Inf	0.000934846	23.619	23.6451	23.593	32.6354	0.47974	0.421513	10.1459	-1
94.5	79.597	Inf	0.000937834	23.6014	23.6306	23.5723	32.6353	0.480119	0.430576	10.1462	-1
94.8	79.8209	Inf	0.000940836	23.6066	23.6365	23.5766	32.6359	0.480224	0.411273	10.1462	-1
95.1	79.9601	Inf	0.000943872	23.6093	23.6312	23.5874	32.6345	0.480263	0.480236	10.1462	-1
95.4	80.176	Inf	0.000946843	23.5902	23.6056	23.5748	32.6349	0.481053	0.468591	10.146	-1
95.7	80.2605	Inf	0.00094985	23.6048	23.6274	23.5823	32.6347	0.479959	0.478565	10.1461	-1
96	80.5636	Inf	0.000952851	23.5976	23.6241	23.5711	32.6357	0.480166	0.40202	10.1462	-1
96.3	80.725	Inf	0.000955848	23.6166	23.6304	23.6028	32.6352	0.480147	0.39337	10.1461	-1
96.6	80.9307	Inf	0.000958829	23.5983	23.6256	23.5711	32.6355	0.479881	0.420087	10.1459	-1
96.9	81.1138	Inf	0.000961843	23.6034	23.6327	23.5741	32.6361	0.479286	0.397503	10.1458	-1
97.2	81.3084	Inf	0.000964814	23.6039	23.6285	23.5794	32.6354	0.480102	0.461018	10.1463	-1
97.5	81.6084	Inf	0.000967834	23.608	23.6419	23.574	32.6353	0.479505	0.481887	10.1463	-1
97.8	81.6853	Inf	0.00097083	23.6037	23.6282	23.5792	32.6362	0.479861	0.545608	10.1464	-1
98.1	81.9341	Inf	0.00097385	23.6028	23.6332	23.5724	32.6363	0.479564	0.501612	10.146	-1
98.4	82.106	Inf	0.000976824	23.6163	23.648	23.5846	32.6345	0.480165	0.480256	10.1461	-1
98.7	82.302	Inf	0.000979828	23.6103	23.6453	23.5752	32.6348	0.479693	0.480329	10.1464	-1
99	82.4189	Inf	0.00098287	23.6139	23.6438	23.584	32.6353	0.480636	0.448263	10.146	-1
99.3	82.6623	Inf	0.000985846	23.6044	23.6401	23.5686	32.6365	0.480496	0.510943	10.1464	-1
99.6	82.7806	Inf	0.000988885	23.6105	23.6393	23.5816	32.636	0.479905	0.50674	10.1464	-1
99.9	82.9076	Inf	0.000991874	23.601	23.6304	23.5716	32.636	0.480148	0.555261	10.1463	-1
100.2	83.0168	Inf	0.000994894	23.6082	23.6355	23.5809	32.6374	0.480427	0.53857	10.1459	-1
100.5	83.2478	Inf	0.000997927	23.624	23.6473	23.6007	32.6355	0.480227	0.514324	10.1464	-1
100.8	83.3461	Inf	0.00100092	23.6138	23.6434	23.5842	32.6353	0.480422	0.475363	10.1459	-1
101.1	83.4758	Inf	0.0010039	23.6051	23.6409	23.5692	32.6345	0.480188	0.466098	10.1461	-1
101.4	83.6962	Inf	0.00100694	23.602	23.6244	23.5797	32.6354	0.479887	0.424919	10.146	-1
101.7	83.7816	Inf	0.00100992	23.6059	23.6359	23.5758	32.6354	0.479833	0.422095	10.1462	-1
102	83.8864	Inf	0.00101295	23.6124	23.6342	23.5907	32.6355	0.47994	0.463482	10.1464	-1
102.3	84.0139	Inf	0.00101597	23.6029	23.632	23.5738	32.6359	0.480198	0.474695	10.1462	-1
102.6	84.1738	Inf	0.00101894	23.6085	23.6337	23.5833	32.6348	0.479431	0.500239	10.1461	-1
102.9	84.3585	Inf	0.00102193	23.6034	23.637	23.5699	32.636	0.480112	0.462664	10.1461	-1
103.2	84.52	Inf	0.00102498	23.6045	23.6338	23.5752	32.6362	0.480458	0.441936	10.1461	-1
103.5	84.6035	Inf	0.00102794	23.6076	23.6459	23.5693	32.6371	0.480415	0.455366	10.1462	-1
103.8	84.7098	Inf	0.00103096	23.6122	23.6325	23.5919	32.6353	0.479867	0.428948	10.1462	-1
104.1	84.8114	Inf	0.00103393	23.6022	23.6282	23.5762	32.6356	0.479871	0.44518	10.146	-1
104.4	84.9739	Inf	0.00103694	23.6138	23.6423	23.5853	32.6356	0.480253	0.494449	10.146	-1
104.7	85.1381	Inf	0.00103992	23.616	23.6435	23.5885	32.6368	0.480047	0.514284	10.146	-1
105	85.2135	Inf	0.00104295	23.6196	23.6438	23.5955	32.6364	0.480571	0.548489	10.146	-1
105.3	85.244	Inf	0.00104595	23.6027	23.6394	23.566	32.636	0.480098	0.504569	10.1461	-1
105.6	85.3752	Inf	0.00104895	23.627	23.6626	23.5914	32.6353	0.479941	0.506632	10.1461	-1
105.9	85.5404	Inf	0.00105194	23.6174	23.6426	23.5923	32.6351	0.480286	0.468001	10.1464	-1
106.2	85.5459	Inf	0.00105495	23.6212	23.6512	23.5913	32.6358	0.480129	0.475093	10.1462	-1
106.5	85.7412	Inf	0.00105791	23.6096	23.6388	23.5804	32.6358	0.480125	0.530292	10.1462	-1
106.8	85.7928	Inf	0.0010609	23.63	23.6601	23.5999	32.6363	0.480758	0.561142	10.1464	-1
107.1	85.8276	Inf	0.00106392	23.6194	23.6505	23.5883	32.6355	0.480264	0.567074	10.146	-1
107.4	85.9662	Inf	0.00106696	23.6117	23.6334	23.5899	32.6345	0.479193	0.596318	10.1463	-1
107.7	85.9727	Inf	0.00106993	23.6227	23.6477	23.5977	32.6358	0.480508	0.604305	10.1461	-1
108	86.1739	Inf	0.00107293	23.6195	23.6517	23.5872	32.6357	0.480205	0.547629	10.1456	-1
108.3	86.349	Inf	0.00107593	23.6015	23.6315	23.5714	32.6355	0.480928	0.531315	10.1461	-1
108.6	86.3027	Inf	0.00107894	23.6175	23.6475	23.5875	32.6367	0.479818	0.519719	10.1459	-1
108.9	86.3734	Inf	0.00108191	23.6097	23.6304	23.589	32.6345	0.480535	0.530041	10.146	-1
109.2	86.5254	Inf	0.00108491	23.619	23.6456	23.5924	32.6356	0.479908	0.538987	10.1457	-1
109.5	86.5666	Inf	0.00108794	23.6131	23.6455	23.5808	32.6369	0.480131	0.541849	10.1462	-1
109.8	86.6294	Inf	0.00109096	23.6202	23.6465	23.5939	32.6354	0.480415	0.583075	10.1461	-1
110.1	86.7737	Inf	0.00109394	23.6188	23.6499	23.5876	32.6357	0.480333	0.524715	10.1462	-1
110.4	86.8302	Inf	0.00109694	23.6058	23.6366	23.5749	32.6366	0.479443	0.482842	10.1458	-1
110.7	86.8753	Inf	0.00109995	23.6135	23.6384	23.5885	32.6355	0.48019	0.476247	10.1462	-1
111	87.0807	Inf	0.0011029	23.6071	23.6378	23.5763	32.6357	0.48058	0.463068	10.1462	-1
111.3	87.0913	Inf	0.00110591	23.6234	23.6404	23.6064	32.6349	0.479486	0.484618	10.1458	-1
111.6	87.1046	Inf	0.00110893	23.6043	23.6221	23.5865	32.6363	0.480375	0.521776	10.146	-1
111.9	87.1889	Inf	0.00111193	23.6034	23.6394	23.5674	32.6369	0.479517	0.551733	10.1459	-1
112.2	87.3283	Inf	0.00111493	23.6022	23.6388	23.5655	32.6365	0.479588	0.558203	10.1465	-1
112.5	87.3157	Inf	0.00111792	23.6033	23.6288	23.5777	32.6357	0.479896	0.530939	10.1461	-1
112.8	87.4118	Inf	0.00112091	23.6141	23.6454	23.5828	32.6356	0.480451	0.517873	10.1458	-1
113.1	87.5055	Inf	0.00112392	23.6074	23.6281	23.5866	32.6355	0.480459	0.506279	10.1462	-1
113.4	87.4784	Inf	0.0011269	23.6124	23.6434	23.5814	32.6361	0.480295	0.503615	10.1461	-1
113.7	87.5599	Inf	0.00112993	23.6119	23.6415	23.5824	32.6361	0.47953	0.536786	10.1461	-1
114	87.683	Inf	0.00113289	23.5981	23.6178	23.5783	32.6353	0.480328	0.540398	10.1461	-1
114.3	87.7048	Inf	0.00113592	23.6135	23.633	23.594	32.6359	0.48099	0.566972	10.1463	-1
114.6	87.7782	Inf	0.00113891	23.6083	23.645	23.5716	32.6352	0.479553	0.588834	10.1461	-1
114.9	87.833	Inf	0.00114191	23.6011	23.6374	23.5647	32.6359	0.481333	0.550676	10.146	-1
115.2	87.8153	Inf	0.00114494	23.5985	23.6218	23.5753	32.6361	0.479919	0.568567	10.1461	-1
115.5	87.9173	Inf	0.00114791	23.604	23.6332	23.5748	32.6362	0.479839	0.509421	10.1464	-1
115.8	88.0128	Inf	0.0011509	23.6028	23.6239	23.5817	32.6365	0.480466	0.524555	10.1461	-1
116.1	87.9569	Inf	0.00115389	23.6089	23.6332	23.5845	32.6363	0.480352	0.535077	10.1461	-1
116.4	87.9986	Inf	0.00115688	23.6118	23.6382	23.5854	32.636	0.479471	0.589209	10.146	-1
116.7	88.0855	Inf	0.0011599	23.5996	23.6252	23.5739	32.6361	0.480653	0.633653	10.1461	-1
117	88.0861	Inf	0.00116292	23.6171	23.6448	23.5894	32.6369	0.480561	0.613065	10.1462	-1
117.3	88.0886	Inf	0.00116593	23.6012	23.626	23.5764	32.636	0.480527	0.585594	10.146	-1
117.6	88.1954	Inf	0.00116892	23.6135	23.6462	23.5808	32.6365	0.480471	0.53001	10.146	-1
117.9	88.0717	Inf	0.00117191	23.6075	23.6352	23.5798	32.6369	0.480852	0.528308	10.1461	-1
118.2	88.1273	Inf	0.00117491	23.6017	23.6341	23.5694	32.6356	0.48043	0.497477	10.146	-1
118.5	88.2569	Inf	0.00117791	23.6106	23.6304	23.5909	32.6371	0.480513	0.532614	10.146	-1
118.8	88.2379	Inf	0.00118091	23.6125	23.6405	23.5846	32.6363	0.479736	0.514274	10.1459	-1
119.1	88.2305	Inf	0.00118392	23.5994	23.6257	23.573	32.6359	0.480243	0.525178	10.1462	-1
119.4	88.2733	Inf	0.00118694	23.6133	23.6392	23.5874	32.6364	0.480711	0.506359	10.1462	-1
119.7	88.3167	Inf	0.00118993	23.597	23.6286	23.5653	32.6362	0.480287	0.503525	10.1462	-1
120	88.3707	Inf	0.00119292	23.6194	23.6662	23.5725	32.6365	0.480206	0.44642	10.1466	-1
120.3	88.3897	Inf	0.00119591	23.586	23.6079	23.5642	32.6377	0.479863	0.423045	10.146	-1
120.6	88.3984	Inf	0.0011989	23.6163	23.6394	23.5931	32.6362	0.480082	0.435025	10.1462	-1
120.9	88.3186	Inf	0.00120189	23.6025	23.6294	23.5756	32.637	0.480315	0.437696	10.146	-1
121.2	88.2613	Inf	0.00120489	23.6033	23.6205	23.586	32.636	0.480903	0.486934	10.1461	-1
121.5	88.4219	Inf	0.00120791	23.6103	23.6443	23.5763	32.637	0.47962	0.495188	10.1461	-1
121.8	88.3809	Inf	0.00121089	23.6075	23.6338	23.5813	32.6363	0.479414	0.529953	10.1462	-1
122.1	88.3766	Inf	0.00121391	23.6051	23.6333	23.577	32.6377	0.481447	0.495946	10.1462	-1
122.4	88.3664	Inf	0.0012169	23.5997	23.6212	23.5781	32.6361	0.480296	0.505254	10.1459	-1
122.7	88.4833	Inf	0.00121991	23.6113	23.6336	23.5889	32.6363	0.480914	0.464141	10.1461	-1
123	88.509	Inf	0.00122289	23.605	23.6341	23.5758	32.6363	0.481499	0.500977	10.1464	-1
123.3	88.4442	Inf	0.00122591	23.6168	23.6483	23.5853	32.6372	0.480004	0.493876	10.1462	-1
123.6	88.4836	Inf	0.00122888	23.6047	23.6329	23.5766	32.6375	0.480415	0.547955	10.1461	-1
123.9	88.4818	Inf	0.00123187	23.6054	23.6339	23.577	32.6362	0.480713	0.552002	10.1463	-1
124.2	88.4949	Inf	0.00123492	23.6161	23.6411	23.5912	32.6375	0.480624	0.537692	10.146	-1
124.5	88.481	Inf	0.00123791	23.6147	23.6439	23.5855	32.6374	0.480505	0.489423	10.1463	-1
124.8	88.424	Inf	0.0012409	23.6146	23.6486	23.5807	32.6367	0.48027	0.442688	10.1463	-1
125.1	88.432	Inf	0.00124389	23.6153	23.6265	23.6041	32.6361	0.480091	0.4815	10.1462	-1
125.4	88.5087	Inf	0.0012469	23.6051	23.6282	23.5821	32.6368	0.480536	0.448327	10.1459	-1
125.7	88.4201	Inf	0.00124989	23.6127	23.646	23.5795	32.6371	0.480235	0.52306	10.1462	-1
126	88.4891	Inf	0.0012529	23.6064	23.6341	23.5788	32.6379	0.480874	0.504661	10.1461	-1
126.3	88.47	Inf	0.00125588	23.6227	23.6533	23.5922	32.6371	0.480828	0.484431	10.1462	-1
126.6	88.4952	Inf	0.00125891	23.6002	23.6304	23.57	32.6364	0.480551	0.472445	10.146	-1
126.9	88.5216	Inf	0.0012619	23.6075	23.633	23.582	32.6352	0.481001	0.468267	10.1458	-1
127.2	88.5121	Inf	0.0012649	23.6128	23.6289	23.5967	32.6368	0.480733	0.443811	10.146	-1
127.5	88.5567	Inf	0.00126788	23.6094	23.6418	23.5769	32.637	0.480395	0.432081	10.1458	-1
127.8	88.5099	Inf	0.00127088	23.6197	23.6494	23.59	32.6351	0.480494	0.402144	10.1457	-1
128.1	88.561	Inf	0.00127389	23.6101	23.6323	23.5878	32.6359	0.480084	0.460162	10.1463	-1
128.4	88.4372	Inf	0.0012769	23.6232	23.6574	23.5891	32.6382	0.480664	0.457867	10.1462	-1
128.7	88.461	Inf	0.00127989	23.6161	23.6512	23.5811	32.6373	0.481282	0.436836	10.146	-1
129	88.5066	Inf	0.00128288	23.6035	23.6296	23.5775	32.6375	0.480286	0.436951	10.146	-1
129.3	88.49	Inf	0.00128589	23.6128	23.6382	23.5873	32.6361	0.479686	0.405386	10.146	-1
129.6	88.4128	Inf	0.0012889	23.6197	23.6487	23.5907	32.6371	0.480239	0.393636	10.146	-1
129.9	88.3928	Inf	0.00129189	23.6082	23.6313	23.5852	32.6359	0.480067	0.355915	10.146	-1
130.2	88.4206	Inf	0.00129487	23.6061	23.6263	23.5859	32.6374	0.479518	0.368741	10.1464	-1
130.5	88.4749	Inf	0.00129786	23.6323	23.6588	23.6059	32.6377	0.480879	0.417949	10.1461	-1
130.8	88.5856	Inf	0.00130087	23.6142	23.6336	23.5949	32.6365	0.480651	0.483562	10.1458	-1
131.1	88.7576	Inf	0.00130387	23.6025	23.6294	23.5757	32.637	0.480276	0.498987	10.1457	-1
131.4	88.8391	Inf	0.00130689	23.6043	23.6317	23.5768	32.6374	0.479397	0.523032	10.146	-1
131.7	88.8908	Inf	0.00130987	23.6254	23.6516	23.5992	32.6358	0.479995	0.51781	10.1456	-1
132	89.0034	Inf	0.00131285	23.6173	23.6517	23.5828	32.6385	0.480127	0.522527	10.1463	-1
132.3	88.9695	Inf	0.00131585	23.6153	23.6256	23.6049	32.6354	0.480603	0.535231	10.1459	-1
132.6	88.9088	Inf	0.00131889	23.6254	23.657	23.5938	32.6363	0.480186	0.573061	10.1458	-1
132.9	88.8815	Inf	0.00132186	23.6265	23.6629	23.5901	32.6356	0.480082	0.579313	10.1458	-1
133.2	89.0409	Inf	0.00132486	23.5998	23.6212	23.5785	32.6365	0.480325	0.561394	10.1458	-1
133.5	88.9405	Inf	0.00132787	23.6108	23.6349	23.5868	32.6378	0.480146	0.584644	10.146	-1
133.8	88.9683	Inf	0.00133086	23.6119	23.6376	23.5863	32.6376	0.480649	0.593265	10.1456	-1
134.1	88.8943	Inf	0.00133388	23.6074	23.6266	23.5883	32.6376	0.479787	0.58161	10.1459	-1
134.4	88.8157	Inf	0.0013369	23.5986	23.6266	23.5707	32.6368	0.479883	0.52698	10.1455	-1
134.7	88.8583	Inf	0.00133987	23.6061	23.6198	23.5925	32.6373	0.480886	0.510566	10.1459	-1
135	88.7959	Inf	0.00134291	23.6199	23.6538	23.586	32.6374	0.479476	0.520007	10.1459	-1
135.3	88.8129	Inf	0.00134586	23.613	23.6356	23.5904	32.637	0.480278	0.547413	10.1458	-1
135.6	88.8291	Inf	0.00134889	23.6178	23.649	23.5865	32.6373	0.480527	0.573752	10.146	-1
135.9	88.7473	Inf	0.00135186	23.6096	23.6219	23.5973	32.6376	0.480788	0.614309	10.1461	-1
136.2	88.8109	Inf	0.00135488	23.5998	23.6192	23.5805	32.6391	0.48063	0.573057	10.146	-1
136.5	88.9025	Inf	0.00135786	23.6165	23.6419	23.5912	32.6381	0.479943	0.568312	10.1461	-1
136.8	88.5635	Inf	0.00136087	23.6309	23.6502	23.6115	32.637	0.480569	0.522444	10.1459	-1
137.1	88.6744	Inf	0.00136387	23.6067	23.636	23.5775	32.6371	0.48106	0.525098	10.1458	-1
137.4	88.6149	Inf	0.00136687	23.6071	23.6355	23.5787	32.6373	0.480779	0.520371	10.1457	-1
137.7	88.7312	Inf	0.00136984	23.6086	23.6331	23.5841	32.6386	0.480578	0.547	10.1457	-1
138	88.7045	Inf	0.00137283	23.6244	23.6556	23.5932	32.6373	0.480244	0.583814	10.1462	-1
138.3	88.6685	Inf	0.00137589	23.6139	23.63	23.5978	32.638	0.481339	0.611452	10.1458	-1
138.6	88.7424	Inf	0.00137886	23.6237	23.6393	23.6082	32.6377	0.480102	0.616637	10.1461	-1
138.9	88.6765	Inf	0.00138187	23.6213	23.6395	23.6032	32.6378	0.481534	0.607218	10.1459	-1
139.2	88.6461	Inf	0.00138486	23.6136	23.6356	23.5915	32.6379	0.480518	0.58312	10.1458	-1
139.5	88.5203	Inf	0.00138785	23.6078	23.6253	23.5903	32.6366	0.480834	0.58911	10.1458	-1
139.8	88.5989	Inf	0.00139085	23.598	23.623	23.573	32.6375	0.480675	0.601883	10.1455	-1
140.1	88.3339	Inf	0.00139383	23.6089	23.6335	23.5843	32.638	0.480873	0.636317	10.1457	-1
140.4	88.3214	Inf	0.00139684	23.6271	23.6566	23.5975	32.6382	0.481064	0.697924	10.146	-1
140.7	88.3453	Inf	0.00139985	23.6076	23.6287	23.5865	32.6376	0.479617	0.717556	10.1459	-1
141	88.3111	Inf	0.00140284	23.6173	23.6476	23.5871	32.637	0.480988	0.733025	10.1456	-1
141.3	88.2266	Inf	0.00140586	23.6191	23.6432	23.5949	32.6358	0.480586	0.662291	10.1456	-1
141.6	88.1741	Inf	0.00140886	23.6053	23.6398	23.5708	32.6377	0.480296	0.663992	10.1461	-1
141.9	88.1754	Inf	0.00141185	23.6136	23.6227	23.6045	32.6373	0.480619	0.644282	10.1458	-1
142.2	88.2159	Inf	0.00141484	23.6255	23.6614	23.5896	32.6374	0.479873	0.694543	10.1459	-1
142.5	88.2037	Inf	0.00141784	23.6155	23.6408	23.5902	32.6369	0.480717	0.740988	10.146	-1
142.8	88.0415	Inf	0.00142084	23.6163	23.6467	23.586	32.6382	0.481026	0.739563	10.1462	-1
143.1	88.1955	Inf	0.00142385	23.6103	23.6358	23.5848	32.6389	0.481158	0.767352	10.146	-1
143.4	87.9945	Inf	0.00142687	23.6241	23.6471	23.6011	32.6364	0.480211	0.718198	10.1457	-1
143.7	88.1722	Inf	0.00142986	23.6136	23.6331	23.594	32.6376	0.480559	0.657719	10.146	-1
144	87.997	Inf	0.00143286	23.6172	23.6289	23.6055	32.6372	0.480152	0.629891	10.1459	-1
144.3	87.9847	Inf	0.00143586	23.6273	23.6378	23.6167	32.6368	0.480867	0.64557	10.1457	-1
144.6	87.8392	Inf	0.00143885	23.634	23.6522	23.6159	32.6363	0.480372	0.66166	10.1462	-1
144.9	87.8135	Inf	0.00144183	23.6088	23.6457	23.5718	32.637	0.48011	0.700661	10.1463	-1
145.2	87.8845	Inf	0.00144483	23.6172	23.6334	23.6009	32.6377	0.480388	0.713465	10.1464	-1
145.5	87.6877	Inf	0.00144788	23.6268	23.651	23.6025	32.6383	0.481023	0.738653	10.146	-1
145.8	87.7526	Inf	0.00145084	23.6187	23.6345	23.6029	32.6364	0.48076	0.716003	10.146	-1
146.1	87.5611	Inf	0.00145387	23.6212	23.646	23.5964	32.6378	0.480503	0.657668	10.146	-1
146.4	87.5604	Inf	0.00145685	23.6308	23.6604	23.6011	32.6385	0.480759	0.660164	10.1461	-1
146.7	87.6066	Inf	0.00145984	23.618	23.6484	23.5875	32.6378	0.480039	0.656854	10.1463	-1
147	87.5795	Inf	0.00146283	23.6006	23.6221	23.5792	32.6386	0.480094	0.659926	10.146	-1
147.3	87.4066	Inf	0.00146584	23.622	23.6465	23.5975	32.6379	0.479239	0.6782	10.1462	-1
147.6	87.4379	Inf	0.00146884	23.6186	23.633	23.6041	32.6371	0.480918	0.704847	10.1461	-1
147.9	87.3382	Inf	0.00147185	23.6273	23.6563	23.5983	32.6378	0.479688	0.689123	10.146	-1
148.2	87.4198	Inf	0.00147485	23.6151	23.6455	23.5847	32.6372	0.480965	0.729605	10.1464	-1
148.5	87.2862	Inf	0.00147784	23.6241	23.6503	23.598	32.638	0.480006	0.664796	10.1465	-1
148.8	87.3578	Inf	0.00148081	23.618	23.6473	23.5887	32.6362	0.480726	0.673979	10.1462	-1
149.1	87.2522	Inf	0.00148383	23.6095	23.635	23.584	32.6372	0.480565	0.701379	10.1463	-1
149.4	87.2674	Inf	0.00148684	23.6005	23.623	23.5779	32.6376	0.480225	0.754276	10.1458	-1
149.7	87.1182	Inf	0.00148983	23.6107	23.6319	23.5895	32.6377	0.480884	0.758254	10.146	-1
150	87.1369	Inf	0.00149284	23.5985	23.6251	23.5719	32.6373	0.479462	0.774215	10.1462	-1
150.3	86.9217	Inf	0.00149584	23.6189	23.6392	23.5987	32.6373	0.480094	0.789705	10.1462	-1
150.6	86.8722	Inf	0.00149883	23.6164	23.6377	23.5951	32.6372	0.481865	0.753156	10.1461	-1
150.9	-0.21964	-0.552025	0.00150161	23.623	23.6482	23.5979	32.6391	0.481627	0.120901	10.1442	-1
151.2	-0.299834	-0.63052	0.00150485	23.6182	23.6404	23.5959	32.6391	0.481099	0.237923	10.1442	-1
151.5	-0.35125	-0.646697	0.00150783	23.6111	23.6396	23.5826	32.6389	0.481919	0.194879	10.1442	-1
151.8	-0.344995	-0.650218	0.00151081	23.6239	23.6418	23.606	32.639	0.481288	0.211127	10.1447	-1
152.1	-0.246742	-0.6558	0.00151383	23.634	23.6565	23.6116	32.638	0.481384	0.206153	10.1443	-1
152.4	-0.301949	-0.645273	0.00151683	23.6316	23.6687	23.5944	32.6391	0.481139	0.212381	10.1445	-1
152.7	-0.323984	-0.650955	0.00151983	23.6314	23.6525	23.6103	32.6395	0.481272	0.21035	10.1444	-1
153	-0.377638	-0.653598	0.00152283	23.6221	23.6553	23.589	32.6374	0.482649	0.182467	10.1447	-1
153.3	-0.321379	-0.651902	0.00152582	23.6326	23.6603	23.6049	32.6375	0.481834	0.144216	10.1444	-1
153.6	-0.357104	-0.654086	0.00152886	23.6051	23.6317	23.5785	32.6384	0.481027	0.112733	10.1443	-1
153.65	-0.289126	-0.657953	0.00152933	23.6358	23.6576	23.6139	32.6392	0.481008	0.101061	10.1444	-1