File: data/ReportRaw/Resin_TXT/Unknown_Resin_15Bi/Tensile_Test_01.txt
Program Started: Thu, Jul 18, 2024	11:47:51 AM	System: µTS4
Test Notes:

User displacement limits active. Low limit -20.000E-3 m, high limit 20.000E-3 m.
User load limits active. Low limit -1.600E+3 N, high limit 1.600E+3 N.

No closed loop control sensors in this test.

Test Segments:
 1. Ramp in Drive Control, +5.00E-3m Amplitude, 10.00E-6 m/s Speed. Sampling at 20.000 Hz, Lowpass Filter Cutoff of 100.000 Hz

Specimen Thickness (m): 	1.470E-3
Specimen Width (m): 	1.930E-3
Specimen Diameter (m): 	0.000E+0
Specimen Area (m^2): 	2.837E-6
Specimen Length (m): 	5.000E-3

Test Started: Thu, Jul 18, 2024	1:13:54 PM
Time (s)	LCFS1600 (N)	LCW1600 (N)	ECATENC (m)	SpecTemp (C)	AirTemp (C)	OutletTemp (C)	JTemp1600 (C)	GTemp1600 (C)	CUR (A)	Ve (V)	Trigger (#)
0.0000000000E+0	-0.0371654	-0.00473816	-3.40439e-16	23.4669	23.4955	23.4383	32.5877	0.488896	0.0810856	10.1429	-1
0.25	0.207421	0.255633	1.20728e-06	23.4465	23.4684	23.4245	32.5875	0.487955	0.19804	10.1429	-1
0.5	0.635747	0.692337	3.74358e-06	23.4383	23.4658	23.4108	32.5873	0.487736	0.190662	10.1438	-1
0.75	0.940893	1.01332	6.21307e-06	23.4395	23.466	23.4131	32.5868	0.488802	0.177989	10.1435	-1
1	1.05939	1.17313	8.74205e-06	23.4469	23.474	23.4198	32.5865	0.488737	0.152337	10.1432	-1
1.25	1.22881	1.24383	1.12311e-05	23.4488	23.4787	23.4189	32.5879	0.489256	0.109749	10.1432	-1
1.5	1.29568	1.34609	1.37271e-05	23.4373	23.4661	23.4086	32.5864	0.487338	0.101665	10.1434	-1
1.75	1.43839	1.4588	1.62107e-05	23.4599	23.4784	23.4413	32.5862	0.488421	0.0864557	10.1433	-1
2	1.51661	1.55427	1.87046e-05	23.453	23.4872	23.4189	32.5875	0.488922	0.117222	10.1436	-1
2.25	1.65443	1.67215	2.12172e-05	23.4512	23.4661	23.4362	32.5861	0.488768	0.149309	10.1432	-1
2.5	1.65214	1.80633	2.37006e-05	23.4382	23.4583	23.4182	32.5865	0.487225	0.158152	10.1431	-1
2.75	1.81646	1.9094	2.62246e-05	23.4338	23.4556	23.412	32.5876	0.489766	0.170052	10.1436	-1
3	2.06863	1.99534	2.87135e-05	23.4342	23.4587	23.4097	32.5878	0.48855	0.162501	10.1431	-1
3.25	2.09006	2.09033	3.11924e-05	23.4326	23.4554	23.4098	32.5883	0.488809	0.166385	10.1433	-1
3.5	2.18041	2.21611	3.3725e-05	23.4439	23.4648	23.423	32.5878	0.487778	0.124951	10.1428	-1
3.75	2.227	2.34219	3.62116e-05	23.4394	23.4601	23.4188	32.5874	0.488627	0.0985924	10.1436	-1
4	2.39003	2.45712	3.86963e-05	23.4585	23.4744	23.4426	32.589	0.488306	0.107865	10.1433	-1
4.25	2.56746	2.54161	4.12259e-05	23.4281	23.4505	23.4058	32.5867	0.488915	0.108142	10.1433	-1
4.5	2.6091	2.65889	4.3682e-05	23.4637	23.4801	23.4473	32.589	0.487491	0.126323	10.143	-1
4.75	2.78615	2.7878	4.62128e-05	23.4384	23.4479	23.4289	32.5883	0.488691	0.154469	10.1432	-1
5	2.81386	2.91561	4.87234e-05	23.4524	23.4727	23.432	32.5868	0.489663	0.171682	10.1435	-1
5.25	2.96159	3.01915	5.12231e-05	23.4502	23.477	23.4234	32.5865	0.488486	0.159192	10.1436	-1
5.5	3.0887	3.09382	5.37097e-05	23.4469	23.4679	23.426	32.5852	0.48905	0.172481	10.1435	-1
5.75	2.956	3.00717	5.62069e-05	23.4601	23.4863	23.4338	32.5877	0.488519	0.109029	10.1434	-1
6	3.07273	3.04598	5.87005e-05	23.4297	23.4541	23.4053	32.5873	0.488614	0.105381	10.1435	-1
6.25	3.17918	3.1969	6.11957e-05	23.4416	23.477	23.4062	32.5885	0.489153	0.0921579	10.1431	-1
6.5	3.33522	3.2886	6.37057e-05	23.4262	23.4423	23.4101	32.5857	0.488487	0.0866404	10.1437	-1
6.75	3.38614	3.39718	6.61841e-05	23.4641	23.4902	23.4381	32.5871	0.489171	0.101286	10.1437	-1
7	3.60066	3.52817	6.86842e-05	23.4315	23.4441	23.4189	32.5869	0.488495	0.142621	10.1435	-1
7.25	3.61962	3.66143	7.12143e-05	23.4557	23.4797	23.4318	32.5846	0.48893	0.165761	10.1433	-1
7.5	3.85215	3.77968	7.36728e-05	23.4605	23.4795	23.4415	32.5866	0.489646	0.196407	10.1436	-1
7.75	3.792	3.8959	7.62163e-05	23.4376	23.4671	23.4081	32.5887	0.488005	0.189767	10.1436	-1
8	3.96239	4.01122	7.87213e-05	23.4565	23.4929	23.4202	32.5871	0.48795	0.18221	10.1436	-1
8.25	4.0095	4.14835	8.11995e-05	23.4348	23.4564	23.4133	32.5884	0.48759	0.158492	10.1439	-1
8.5	4.23284	4.28386	8.37206e-05	23.4439	23.4583	23.4296	32.5873	0.486991	0.149372	10.1434	-1
8.75	4.27946	4.39742	8.62099e-05	23.4352	23.4479	23.4225	32.5871	0.487921	0.134077	10.1432	-1
9	4.52366	4.52926	8.86859e-05	23.4511	23.484	23.4181	32.5873	0.48864	0.14121	10.1439	-1
9.25	4.58947	4.67719	9.12024e-05	23.4525	23.4711	23.4339	32.5869	0.488412	0.17349	10.1438	-1
9.5	4.69868	4.79555	9.36847e-05	23.4373	23.4661	23.4086	32.5875	0.488382	0.206616	10.1432	-1
9.75	4.92893	4.93132	9.61995e-05	23.4432	23.4816	23.4047	32.5868	0.490216	0.248939	10.1434	-1
10	5.01124	5.0646	9.87048e-05	23.4328	23.4607	23.405	32.5873	0.489114	0.249381	10.1436	-1
10.25	5.15366	5.17247	0.000101199	23.4642	23.4756	23.4528	32.5872	0.488914	0.237741	10.1437	-1
10.5	5.37578	5.32066	0.000103718	23.4401	23.4675	23.4128	32.5879	0.488171	0.219457	10.1436	-1
10.75	5.39891	5.44274	0.000106186	23.4371	23.4555	23.4188	32.5887	0.488636	0.190016	10.1436	-1
11	5.52664	5.57197	0.000108691	23.4378	23.4674	23.4082	32.5883	0.488583	0.173194	10.1434	-1
11.25	5.6548	5.72919	0.000111169	23.4306	23.4565	23.4048	32.5884	0.487858	0.156117	10.1436	-1
11.5	5.76047	5.88089	0.000113691	23.4412	23.4749	23.4075	32.5876	0.489163	0.179865	10.1434	-1
11.75	5.96773	6.00123	0.000116182	23.4469	23.4757	23.4181	32.5887	0.488928	0.207676	10.1437	-1
12	6.14935	6.15384	0.000118672	23.4408	23.4728	23.4088	32.5882	0.488191	0.217471	10.1437	-1
12.25	6.2779	6.29597	0.000121186	23.4416	23.4546	23.4287	32.5868	0.489137	0.238731	10.1437	-1
12.5	6.47063	6.48542	0.000123663	23.4372	23.4545	23.4198	32.5865	0.48824	0.226602	10.1437	-1
12.75	6.59785	6.63511	0.000126208	23.444	23.4638	23.4242	32.5882	0.487306	0.211303	10.1435	-1
13	6.73952	6.78953	0.000128718	23.4485	23.4661	23.4308	32.5891	0.488516	0.181728	10.1436	-1
13.25	6.93884	6.92619	0.000131187	23.4408	23.4807	23.4008	32.5874	0.488871	0.150273	10.1438	-1
13.5	7.0023	7.09543	0.000133677	23.454	23.4849	23.4232	32.5883	0.488034	0.140012	10.1434	-1
13.75	7.24614	7.29506	0.000136172	23.4634	23.4869	23.44	32.5861	0.488265	0.155994	10.1436	-1
14	7.41372	7.46571	0.000138676	23.4436	23.4675	23.4197	32.5857	0.48839	0.183735	10.1435	-1
14.25	7.60678	7.64226	0.000141192	23.4326	23.4591	23.4061	32.5878	0.487478	0.220321	10.1434	-1
14.5	7.76303	7.8361	0.000143684	23.4413	23.4556	23.427	32.5873	0.489101	0.23506	10.1437	-1
14.75	7.99056	8.03461	0.000146174	23.4435	23.4684	23.4187	32.5868	0.48771	0.257654	10.1437	-1
15	8.20342	8.25371	0.000148672	23.4434	23.4556	23.4311	32.5877	0.487467	0.250684	10.1437	-1
15.25	8.43795	8.48695	0.000151183	23.4406	23.4591	23.4222	32.5885	0.488205	0.200979	10.1435	-1
15.5	8.66883	8.67861	0.000153654	23.4438	23.4615	23.426	32.5879	0.488531	0.188122	10.1437	-1
15.75	8.82597	8.89952	0.000156183	23.4405	23.4658	23.4151	32.5882	0.487925	0.189984	10.1438	-1
16	9.15223	9.1424	0.000158691	23.4455	23.4668	23.4241	32.5874	0.488335	0.217899	10.1441	-1
16.25	9.2513	9.37432	0.000161151	23.4531	23.4786	23.4276	32.5881	0.488196	0.231813	10.1437	-1
16.5	9.57965	9.61041	0.000163657	23.441	23.4602	23.4218	32.5876	0.487388	0.267458	10.1436	-1
16.75	9.73381	9.85931	0.000166157	23.4457	23.4729	23.4185	32.5871	0.488417	0.286205	10.1439	-1
17	10.0679	10.1265	0.00016867	23.4373	23.4605	23.4141	32.5874	0.489025	0.341925	10.1437	-1
17.25	10.3418	10.4078	0.000171163	23.4403	23.4599	23.4208	32.5873	0.487866	0.329456	10.1439	-1
17.5	10.6127	10.693	0.00017369	23.4485	23.4715	23.4255	32.5869	0.487421	0.310725	10.1434	-1
17.75	10.9371	10.9762	0.000176199	23.438	23.4647	23.4112	32.5877	0.487722	0.278677	10.1439	-1
18	11.1787	11.2631	0.000178695	23.454	23.475	23.433	32.588	0.488177	0.246674	10.1439	-1
18.25	11.5473	11.5592	0.000181187	23.43	23.4505	23.4095	32.5877	0.488951	0.230559	10.1441	-1
18.5	11.7995	11.8792	0.000183697	23.4533	23.4838	23.4227	32.5864	0.488157	0.228643	10.1439	-1
18.75	12.1106	12.1959	0.000186171	23.4326	23.4524	23.4128	32.5875	0.48879	0.24177	10.1437	-1
19	12.4017	12.4782	0.000188656	23.4512	23.4817	23.4207	32.5876	0.48816	0.28648	10.1439	-1
19.25	12.7292	12.7981	0.000191164	23.4449	23.4701	23.4197	32.5895	0.489115	0.274218	10.1435	-1
19.5	13.0774	13.1409	0.00019369	23.4483	23.4752	23.4213	32.5876	0.488034	0.272537	10.144	-1
19.75	13.4999	13.4867	0.000196171	23.4441	23.4592	23.4291	32.5882	0.488867	0.28785	10.1436	-1
20	13.7996	13.8097	0.000198693	23.4399	23.4556	23.4243	32.589	0.487886	0.251081	10.1437	-1
20.25	14.0309	14.1345	0.000201189	23.4561	23.4783	23.434	32.5878	0.488557	0.216277	10.1438	-1
20.5	14.4405	14.4934	0.000203652	23.4343	23.4577	23.411	32.5886	0.48833	0.151958	10.1436	-1
20.75	14.8346	14.8318	0.000206154	23.438	23.4543	23.4217	32.5882	0.488442	0.200371	10.1436	-1
21	15.2132	15.1972	0.00020866	23.4495	23.4728	23.4262	32.5866	0.488149	0.228151	10.1436	-1
21.25	15.5243	15.5511	0.000211169	23.4439	23.4822	23.4057	32.5882	0.488529	0.25925	10.1436	-1
21.5	15.8567	15.9008	0.000213675	23.4532	23.4823	23.4242	32.588	0.488322	0.294779	10.1437	-1
21.75	16.2341	16.2132	0.000216158	23.4335	23.4568	23.4102	32.5883	0.487557	0.313325	10.1438	-1
22	16.548	16.5706	0.000218665	23.4457	23.4745	23.417	32.5876	0.487427	0.310377	10.1439	-1
22.25	16.9259	16.9255	0.00022118	23.4494	23.4747	23.4241	32.5882	0.488916	0.276987	10.1441	-1
22.5	17.2089	17.2362	0.000223674	23.4408	23.466	23.4157	32.5874	0.488629	0.285435	10.1437	-1
22.75	17.4814	17.5683	0.000226165	23.4454	23.469	23.4217	32.5875	0.488458	0.268327	10.144	-1
23	17.8672	17.9596	0.000228659	23.4529	23.4802	23.4255	32.5897	0.488187	0.252001	10.1438	-1
23.25	18.2742	18.3272	0.00023117	23.4444	23.4606	23.4281	32.5877	0.488248	0.228364	10.1437	-1
23.5	18.5966	18.6743	0.000233642	23.4319	23.4545	23.4093	32.5886	0.487433	0.229439	10.1439	-1
23.75	18.9073	19.0034	0.000236161	23.446	23.462	23.4299	32.5878	0.487389	0.272019	10.1441	-1
24	19.3122	19.405	0.000238654	23.4466	23.467	23.4261	32.5885	0.487996	0.292841	10.144	-1
24.25	19.6722	19.7684	0.000241172	23.4623	23.4898	23.4348	32.5875	0.487672	0.288466	10.1441	-1
24.5	20.0096	20.1256	0.00024367	23.4394	23.4641	23.4148	32.5884	0.487636	0.280468	10.1441	-1
24.75	20.4945	20.5329	0.000246162	23.4388	23.4735	23.4041	32.5879	0.488613	0.254751	10.1438	-1
25	20.8903	20.897	0.00024867	23.4407	23.4562	23.4253	32.5887	0.487255	0.245428	10.1439	-1
25.25	21.1735	21.2511	0.00025116	23.4498	23.4657	23.4338	32.5884	0.488302	0.212632	10.1441	-1
25.5	21.578	21.622	0.000253648	23.434	23.4585	23.4095	32.5891	0.488543	0.202337	10.1441	-1
25.75	21.9092	21.9691	0.000256135	23.4483	23.4779	23.4186	32.5878	0.487334	0.228939	10.1442	-1
26	22.3162	22.3619	0.000258645	23.4428	23.47	23.4156	32.588	0.487519	0.284927	10.1442	-1
26.25	22.6601	22.7133	0.000261153	23.4595	23.4752	23.4439	32.5876	0.488461	0.308703	10.1442	-1
26.5	22.9995	23.0897	0.000263653	23.4586	23.4841	23.4331	32.5875	0.488639	0.306283	10.1444	-1
26.75	23.441	23.4545	0.00026617	23.4358	23.4546	23.417	32.589	0.488831	0.311898	10.1446	-1
27	23.7926	23.8174	0.000268674	23.4454	23.4733	23.4175	32.587	0.488956	0.300665	10.1443	-1
27.25	24.2106	24.2247	0.00027117	23.4608	23.4824	23.4392	32.5878	0.488391	0.282656	10.1442	-1
27.5	24.577	24.6287	0.000273656	23.4358	23.4561	23.4155	32.5879	0.4879	0.261129	10.1446	-1
27.75	24.9091	24.9634	0.000276181	23.4428	23.4612	23.4245	32.5878	0.487403	0.246699	10.145	-1
28	25.2018	25.2593	0.000278646	23.4305	23.4475	23.4135	32.5882	0.487702	0.243475	10.1444	-1
28.25	25.5511	25.5952	0.000281169	23.4486	23.4708	23.4264	32.5871	0.488291	0.228324	10.1442	-1
28.5	25.8488	25.9581	0.000283618	23.4396	23.4594	23.4198	32.5883	0.488149	0.257477	10.1442	-1
28.75	26.0746	26.2184	0.000286149	23.4588	23.4753	23.4422	32.5877	0.487076	0.268139	10.1445	-1
29	26.4413	26.5209	0.000288654	23.4543	23.4882	23.4204	32.5883	0.487894	0.248439	10.1441	-1
29.25	26.804	26.8647	0.000291144	23.4306	23.4609	23.4003	32.5877	0.487481	0.22224	10.1442	-1
29.5	27.2246	27.2179	0.000293662	23.4356	23.4669	23.4043	32.5884	0.487532	0.197054	10.1443	-1
29.75	27.5142	27.5763	0.000296152	23.4347	23.4667	23.4028	32.5891	0.487561	0.177144	10.1445	-1
30	27.9336	27.9158	0.000298668	23.4487	23.4824	23.415	32.5875	0.488524	0.140664	10.1451	-1
30.25	28.1996	28.2539	0.000301141	23.4324	23.447	23.4179	32.589	0.488443	0.129466	10.1444	-1
30.5	28.532	28.5951	0.000303647	23.4545	23.462	23.447	32.5883	0.488447	0.146364	10.1443	-1
30.75	28.8644	28.976	0.000306152	23.4322	23.4525	23.4118	32.5872	0.488129	0.188648	10.1444	-1
31	29.3088	29.307	0.000308631	23.4602	23.4935	23.4269	32.5886	0.487906	0.236102	10.1444	-1
31.25	29.5855	29.6148	0.000311143	23.436	23.4601	23.412	32.5862	0.487699	0.262408	10.1443	-1
31.5	29.9003	29.9077	0.000313623	23.4244	23.4513	23.3975	32.5882	0.487848	0.263485	10.1443	-1
31.75	30.2132	30.2567	0.00031616	23.4487	23.4658	23.4317	32.5874	0.486881	0.278854	10.1443	-1
32	30.6194	30.618	0.000318645	23.4423	23.4747	23.4099	32.5888	0.487532	0.226187	10.1447	-1
32.25	30.9721	30.9801	0.000321138	23.4417	23.4608	23.4227	32.589	0.487417	0.210594	10.1449	-1
32.5	31.2917	31.3209	0.000323653	23.4458	23.4824	23.4092	32.5876	0.488428	0.225017	10.1445	-1
32.75	31.593	31.6634	0.000326156	23.4433	23.4727	23.4139	32.5879	0.487556	0.250038	10.1452	-1
33	31.9921	Inf	0.000328626	23.4475	23.4604	23.4346	32.5886	0.487063	0.233779	10.1451	-1
33.25	32.4399	Inf	0.000331111	23.4287	23.4567	23.4008	32.5891	0.487807	0.249873	10.1448	-1
33.5	32.6055	Inf	0.000333622	23.4576	23.4838	23.4314	32.5886	0.486796	0.278902	10.1449	-1
33.75	33.007	Inf	0.000336136	23.4468	23.4682	23.4253	32.5879	0.487467	0.296431	10.1447	-1
34	33.3749	Inf	0.000338638	23.4593	23.4619	23.4566	32.5897	0.486736	0.283222	10.145	-1
34.25	33.6691	Inf	0.000341138	23.4363	23.4618	23.4109	32.5876	0.487819	0.237714	10.1448	-1
34.5	33.9348	Inf	0.000343657	23.4541	23.4841	23.424	32.5878	0.488351	0.207433	10.1449	-1
34.75	34.396	Inf	0.000346121	23.436	23.4678	23.4041	32.5891	0.487547	0.232975	10.145	-1
35	34.6878	Inf	0.000348627	23.4433	23.4724	23.4142	32.5874	0.487855	0.180426	10.145	-1
35.25	35.0317	Inf	0.000351106	23.438	23.4595	23.4165	32.5882	0.488766	0.201485	10.145	-1
35.5	35.3279	Inf	0.000353617	23.4331	23.4604	23.4059	32.5869	0.487858	0.219783	10.1449	-1
35.75	35.7649	Inf	0.000356128	23.4425	23.4635	23.4214	32.5871	0.487815	0.275549	10.145	-1
36	36.0958	Inf	0.000358628	23.4439	23.4688	23.419	32.5881	0.486538	0.269925	10.1449	-1
36.25	36.4507	Inf	0.000361135	23.4484	23.4797	23.4171	32.5874	0.487989	0.262334	10.1453	-1
36.5	36.707	Inf	0.000363616	23.4369	23.4672	23.4067	32.5876	0.487072	0.255429	10.1447	-1
36.75	37.0528	Inf	0.000366136	23.4388	23.4781	23.3996	32.589	0.486469	0.235084	10.1451	-1
37	37.2784	Inf	0.000368635	23.442	23.4566	23.4274	32.5881	0.485812	0.209428	10.1448	-1
37.25	37.7004	Inf	0.000371123	23.4249	23.4488	23.401	32.5886	0.487654	0.197792	10.1449	-1
37.5	37.9849	Inf	0.000373626	23.446	23.4505	23.4414	32.588	0.486734	0.189511	10.1445	-1
37.75	38.292	Inf	0.000376126	23.4358	23.466	23.4056	32.5884	0.48666	0.189979	10.1449	-1
38	38.6285	Inf	0.000378635	23.464	23.4981	23.4298	32.5884	0.487148	0.210233	10.145	-1
38.25	38.9376	Inf	0.000381125	23.4357	23.4687	23.4028	32.5888	0.486589	0.239365	10.145	-1
38.5	39.3146	Inf	0.00038362	23.4621	23.4903	23.4339	32.5882	0.486384	0.22892	10.145	-1
38.75	39.5532	Inf	0.000386125	23.4328	23.4592	23.4065	32.5888	0.486875	0.22569	10.1454	-1
39	39.7336	Inf	0.000388637	23.4432	23.4766	23.4098	32.5879	0.488009	0.214826	10.1451	-1
39.25	40.0971	Inf	0.000391127	23.4414	23.473	23.4098	32.5887	0.486698	0.188628	10.1448	-1
39.5	40.3163	Inf	0.000393625	23.4331	23.4629	23.4034	32.5891	0.486837	0.164599	10.1451	-1
39.75	40.5791	Inf	0.000396103	23.4405	23.4695	23.4116	32.5867	0.487005	0.157566	10.1448	-1
40	40.9076	Inf	0.000398636	23.4344	23.4603	23.4085	32.5874	0.487332	0.172917	10.1446	-1
40.25	41.2759	Inf	0.000401106	23.4427	23.468	23.4174	32.5888	0.48741	0.207628	10.1451	-1
40.5	41.3405	Inf	0.00040361	23.4276	23.4499	23.4054	32.5892	0.48729	0.241181	10.1453	-1
40.75	41.802	Inf	0.000406113	23.4435	23.4683	23.4187	32.5886	0.48658	0.289665	10.1451	-1
41	41.9515	Inf	0.000408614	23.45	23.4816	23.4184	32.5895	0.487338	0.304258	10.1452	-1
41.25	42.1821	Inf	0.000411131	23.442	23.4688	23.4152	32.5885	0.487661	0.269385	10.1449	-1
41.5	42.4925	Inf	0.000413613	23.4344	23.4552	23.4137	32.5883	0.487422	0.250075	10.1453	-1
41.75	42.6911	Inf	0.000416124	23.4278	23.4565	23.3991	32.5874	0.487102	0.252377	10.145	-1
42	43.1053	Inf	0.000418598	23.4452	23.4643	23.4261	32.5888	0.487339	0.262608	10.1456	-1
42.25	43.4338	Inf	0.0004211	23.429	23.4674	23.3906	32.5886	0.487448	0.252644	10.1448	-1
42.5	43.7007	Inf	0.000423614	23.4502	23.4694	23.4309	32.5881	0.487779	0.240401	10.145	-1
42.75	44.0316	Inf	0.000426125	23.4319	23.4556	23.4082	32.5885	0.486658	0.286233	10.145	-1
43	44.2804	Inf	0.000428601	23.434	23.4658	23.4022	32.589	0.485954	0.304383	10.1446	-1
43.25	44.5299	Inf	0.000431134	23.4402	23.4845	23.396	32.5878	0.487962	0.30911	10.1449	-1
43.5	44.8921	Inf	0.000433607	23.4484	23.4482	23.4486	32.5872	0.48806	0.344658	10.1449	-1
43.75	45.1118	Inf	0.000436116	23.4462	23.4797	23.4127	32.5879	0.488328	0.301328	10.1452	-1
44	45.4402	Inf	0.000438657	23.4421	23.4891	23.395	32.5892	0.487525	0.25174	10.1447	-1
44.25	45.6139	Inf	0.000441122	23.4439	23.4639	23.4239	32.5882	0.487352	0.217162	10.1451	-1
44.5	45.9785	Inf	0.000443599	23.4323	23.4599	23.4047	32.5882	0.487166	0.212856	10.1449	-1
44.75	46.1207	Inf	0.000446115	23.4504	23.4918	23.409	32.5889	0.487192	0.201456	10.1456	-1
45	46.364	Inf	0.000448601	23.4436	23.4619	23.4254	32.5872	0.486423	0.248969	10.1449	-1
45.25	46.6874	Inf	0.000451096	23.4397	23.4544	23.4251	32.5881	0.486937	0.257115	10.1451	-1
45.5	46.8652	Inf	0.000453608	23.4317	23.4703	23.3931	32.5878	0.487059	0.26479	10.1448	-1
45.75	47.1365	Inf	0.000456107	23.4451	23.4644	23.4259	32.5884	0.486663	0.275263	10.1449	-1
46	47.4638	Inf	0.000458628	23.4371	23.4502	23.4241	32.5896	0.488252	0.280579	10.1451	-1
46.25	47.6373	Inf	0.000461089	23.4313	23.4552	23.4074	32.5887	0.486606	0.264837	10.145	-1
46.5	47.8996	Inf	0.000463602	23.4429	23.4775	23.4083	32.5888	0.487261	0.240867	10.145	-1
46.75	48.2608	Inf	0.000466103	23.4451	23.4665	23.4238	32.5889	0.486991	0.218181	10.145	-1
47	48.6229	Inf	0.000468619	23.4432	23.4681	23.4184	32.5886	0.487006	0.203589	10.1453	-1
47.25	48.8476	Inf	0.000471114	23.4513	23.4804	23.4222	32.5898	0.487015	0.242688	10.1449	-1
47.5	49.1568	Inf	0.000473585	23.436	23.4766	23.3953	32.5889	0.486638	0.26775	10.1449	-1
47.75	49.6412	Inf	0.000476088	23.4539	23.4803	23.4276	32.5904	0.486761	0.283873	10.145	-1
48	50.0121	Inf	0.000478614	23.4471	23.4684	23.4259	32.5873	0.485558	0.281755	10.1451	-1
48.25	50.5158	Inf	0.000481087	23.4439	23.4795	23.4083	32.5885	0.485968	0.319462	10.1455	-1
48.5	50.6833	Inf	0.000483604	23.4505	23.4912	23.4097	32.588	0.487439	0.299438	10.1451	-1
48.75	50.8839	Inf	0.000486104	23.4298	23.4626	23.397	32.5892	0.487037	0.239794	10.1454	-1
49	51.3397	Inf	0.000488607	23.4251	23.4535	23.3966	32.5894	0.486003	0.240961	10.1451	-1
49.25	51.7303	Inf	0.000491103	23.4254	23.446	23.4048	32.5907	0.486576	0.25793	10.145	-1
49.5	51.9107	Inf	0.000493607	23.4539	23.4764	23.4313	32.5873	0.485888	0.310664	10.1452	-1
49.75	52.3454	Inf	0.000496097	23.429	23.4461	23.4118	32.589	0.48695	0.322809	10.1454	-1
50	52.6688	Inf	0.000498601	23.4487	23.4694	23.4279	32.5902	0.486892	0.358386	10.1447	-1
50.25	52.8467	Inf	0.000501097	23.4462	23.4753	23.417	32.5876	0.486393	0.385686	10.1451	-1
50.5	53.1828	Inf	0.000503599	23.4512	23.4791	23.4233	32.5901	0.486681	0.413408	10.145	-1
50.75	53.5862	Inf	0.000506098	23.437	23.4584	23.4156	32.5893	0.486868	0.394449	10.1456	-1
51	53.8993	Inf	0.000508617	23.4465	23.4732	23.4198	32.5903	0.487246	0.358122	10.1451	-1
51.25	54.0597	Inf	0.000511089	23.44	23.4727	23.4074	32.5891	0.486907	0.377328	10.1452	-1
51.5	54.4871	Inf	0.000513605	23.4229	23.4469	23.3989	32.5891	0.487356	0.338001	10.1453	-1
51.75	54.7447	Inf	0.000516087	23.458	23.4698	23.4461	32.5876	0.486196	0.334821	10.1453	-1
52	55.2716	Inf	0.000518581	23.4537	23.4724	23.435	32.589	0.48726	0.304877	10.1452	-1
52.25	55.4589	Inf	0.000521072	23.4506	23.4872	23.414	32.5881	0.48671	0.386653	10.1451	-1
52.5	55.9756	Inf	0.000523578	23.4461	23.4846	23.4076	32.5897	0.487241	0.372705	10.1452	-1
52.75	56.2617	Inf	0.000526108	23.4568	23.4701	23.4436	32.5886	0.48718	0.387657	10.1452	-1
53	56.7172	Inf	0.000528595	23.4567	23.4788	23.4346	32.5885	0.487527	0.358031	10.145	-1
53.25	57.1035	Inf	0.000531086	23.4523	23.4791	23.4255	32.5893	0.487328	0.394394	10.145	-1
53.5	57.4222	Inf	0.000533605	23.4504	23.4709	23.4298	32.5891	0.487331	0.322497	10.1454	-1
53.75	57.8328	Inf	0.000536091	23.4562	23.4825	23.4298	32.5881	0.486378	0.263188	10.145	-1
54	58.1991	Inf	0.000538581	23.4547	23.4938	23.4157	32.5894	0.486105	0.267052	10.1449	-1
54.25	58.3919	Inf	0.000541087	23.4286	23.4457	23.4115	32.5891	0.486967	0.314872	10.1448	-1
54.5	58.879	Inf	0.000543589	23.4289	23.4585	23.3994	32.5895	0.48721	0.323408	10.1447	-1
54.75	59.1823	Inf	0.000546076	23.453	23.4838	23.4222	32.5886	0.486941	0.330623	10.145	-1
55	59.4625	Inf	0.000548551	23.4514	23.4782	23.4246	32.5885	0.486692	0.37196	10.1449	-1
55.25	59.872	Inf	0.000551083	23.4357	23.4635	23.4079	32.5897	0.486874	0.388296	10.1449	-1
55.5	60.2462	Inf	0.000553582	23.4429	23.4727	23.4132	32.5893	0.487274	0.374442	10.1447	-1
55.75	60.5136	Inf	0.000556087	23.4399	23.4797	23.4001	32.5881	0.486787	0.37632	10.145	-1
56	60.9726	Inf	0.000558591	23.4397	23.4541	23.4254	32.589	0.488274	0.340206	10.1452	-1
56.25	61.3221	Inf	0.000561084	23.4422	23.4762	23.4081	32.5892	0.48554	0.337324	10.1451	-1
56.5	61.766	Inf	0.000563585	23.4478	23.467	23.4285	32.588	0.486818	0.289742	10.1451	-1
56.75	62.122	Inf	0.000566067	23.4361	23.4706	23.4016	32.5881	0.48631	0.320659	10.1452	-1
57	62.5089	Inf	0.000568599	23.4535	23.4829	23.424	32.5892	0.487504	0.323009	10.1451	-1
57.25	62.9838	Inf	0.000571058	23.4421	23.466	23.4182	32.589	0.487253	0.391717	10.1448	-1
57.5	63.3327	Inf	0.000573594	23.4521	23.4694	23.4349	32.5888	0.487277	0.410237	10.145	-1
57.75	63.738	Inf	0.000576085	23.44	23.4558	23.4242	32.5885	0.48739	0.362045	10.1448	-1
58	64.1355	Inf	0.000578579	23.442	23.4728	23.4113	32.5896	0.487856	0.360327	10.1452	-1
58.25	64.618	Inf	0.000581085	23.4369	23.4548	23.4191	32.5891	0.486908	0.335542	10.1448	-1
58.5	64.9986	Inf	0.00058358	23.4354	23.4626	23.4082	32.5894	0.486518	0.307018	10.1452	-1
58.75	65.3671	Inf	0.00058608	23.4548	23.4757	23.4338	32.589	0.486469	0.288846	10.1449	-1
59	65.8604	Inf	0.000588586	23.4394	23.4552	23.4235	32.5889	0.486263	0.3237	10.145	-1
59.25	66.168	Inf	0.000591059	23.4489	23.4674	23.4304	32.5893	0.487664	0.360022	10.145	-1
59.5	66.589	Inf	0.000593563	23.4473	23.4695	23.4252	32.5901	0.486658	0.392145	10.1446	-1
59.75	66.9662	Inf	0.00059606	23.4543	23.4807	23.4279	32.5898	0.486338	0.434904	10.1449	-1
60	67.304	Inf	0.000598571	23.4451	23.4692	23.4211	32.588	0.48656	0.454171	10.1444	-1
60.25	67.7894	Inf	0.000601074	23.4451	23.4718	23.4184	32.5882	0.487079	0.444412	10.1448	-1
60.5	68.1547	Inf	0.000603573	23.4559	23.4806	23.4312	32.5886	0.486151	0.418205	10.1452	-1
60.75	68.5318	Inf	0.000606087	23.437	23.4621	23.4119	32.5888	0.486101	0.390876	10.145	-1
61	68.9666	Inf	0.00060857	23.4537	23.4799	23.4275	32.5888	0.486687	0.358755	10.1447	-1
61.25	69.3134	Inf	0.000611069	23.4462	23.4841	23.4084	32.5894	0.486241	0.3587	10.1447	-1
61.5	69.7341	Inf	0.000613556	23.4221	23.4413	23.403	32.5887	0.48719	0.351052	10.1451	-1
61.75	70.1224	Inf	0.000616072	23.4449	23.4703	23.4195	32.5889	0.486641	0.374659	10.1451	-1
62	70.5252	Inf	0.000618564	23.4479	23.4725	23.4232	32.588	0.486233	0.410221	10.1449	-1
62.25	70.9269	Inf	0.000621079	23.4439	23.464	23.4237	32.5891	0.487088	0.387113	10.1452	-1
62.5	71.4842	Inf	0.000623587	23.4528	23.4685	23.4371	32.5894	0.487645	0.39918	10.1447	-1
62.75	71.7282	Inf	0.000626057	23.4426	23.4655	23.4197	32.5901	0.486498	0.36878	10.1449	-1
63	72.2336	Inf	0.000628573	23.4511	23.4767	23.4254	32.5899	0.486647	0.35072	10.1448	-1
63.25	72.6133	Inf	0.000631067	23.4524	23.4731	23.4316	32.5887	0.486644	0.333767	10.1449	-1
63.5	72.9881	Inf	0.000633563	23.4425	23.4673	23.4177	32.5901	0.486277	0.339661	10.145	-1
63.75	73.5286	Inf	0.000636066	23.4429	23.471	23.4149	32.5882	0.48671	0.35368	10.1448	-1
64	73.789	Inf	0.000638561	23.447	23.4669	23.427	32.588	0.486889	0.397764	10.1448	-1
64.25	74.1882	Inf	0.000641059	23.4433	23.4584	23.4281	32.5885	0.486217	0.414783	10.1447	-1
64.5	74.7556	Inf	0.000643564	23.4485	23.481	23.416	32.5903	0.486608	0.46753	10.1451	-1
64.75	75.0941	Inf	0.000646047	23.45	23.4842	23.4158	32.5883	0.48633	0.508366	10.1451	-1
65	75.4167	Inf	0.000648589	23.4412	23.4655	23.4169	32.5915	0.487067	0.52354	10.1451	-1
65.25	75.8059	Inf	0.000651068	23.4464	23.463	23.4299	32.5881	0.486759	0.526133	10.1447	-1
65.5	76.197	Inf	0.000653559	23.4406	23.4643	23.4169	32.5888	0.487409	0.518123	10.145	-1
65.75	76.5744	Inf	0.000656082	23.4506	23.4782	23.4229	32.5894	0.486332	0.535198	10.1452	-1
66	77.0197	Inf	0.000658552	23.4437	23.465	23.4225	32.5899	0.486383	0.550163	10.1454	-1
66.25	77.3729	Inf	0.000661075	23.4564	23.4884	23.4243	32.5884	0.4872	0.54907	10.1444	-1
66.5	77.6964	Inf	0.000663546	23.4442	23.4789	23.4095	32.5888	0.486379	0.565822	10.1446	-1
66.75	78.1845	Inf	0.000666045	23.4542	23.4677	23.4408	32.5866	0.486308	0.607531	10.1446	-1
67	78.595	Inf	0.000668574	23.4469	23.4675	23.4264	32.5878	0.487047	0.611383	10.1448	-1
67.25	79.0417	Inf	0.000671057	23.4439	23.4536	23.4342	32.5898	0.485968	0.620855	10.1445	-1
67.5	79.4345	Inf	0.00067357	23.4473	23.4626	23.4319	32.5888	0.486518	0.646818	10.1446	-1
67.75	79.6984	Inf	0.000676052	23.4451	23.4714	23.4188	32.5886	0.48632	0.605268	10.1448	-1
68	80.0772	Inf	0.000678561	23.4583	23.4795	23.4371	32.5885	0.48723	0.580032	10.145	-1
68.25	80.6339	Inf	0.000681048	23.4476	23.4734	23.4218	32.59	0.486516	0.561129	10.145	-1
68.5	80.9559	Inf	0.00068356	23.4374	23.4578	23.4171	32.5883	0.487045	0.579319	10.1448	-1
68.75	81.4399	Inf	0.000686043	23.4561	23.4751	23.4371	32.5879	0.487057	0.611231	10.1449	-1
69	81.8116	Inf	0.000688531	23.449	23.4771	23.4209	32.5902	0.486609	0.681721	10.1446	-1
69.25	82.2461	Inf	0.000691045	23.4515	23.4895	23.4134	32.5892	0.485746	0.670261	10.1448	-1
69.5	82.7853	Inf	0.000693556	23.433	23.4447	23.4213	32.5896	0.487181	0.755242	10.145	-1
69.75	83.1205	Inf	0.00069606	23.4392	23.4534	23.425	32.5892	0.486748	0.725957	10.1448	-1
70	83.5264	Inf	0.00069858	23.4529	23.4822	23.4235	32.5901	0.486657	0.716727	10.1447	-1
70.25	83.8853	Inf	0.000701063	23.4399	23.4765	23.4034	32.5905	0.487137	0.701151	10.1452	-1
70.5	84.1199	Inf	0.000703534	23.4365	23.4572	23.4157	32.5884	0.486203	0.67626	10.145	-1
70.75	84.4206	Inf	0.000706071	23.4348	23.4603	23.4093	32.5889	0.488477	0.658636	10.1451	-1
71	84.7833	Inf	0.000708535	23.4467	23.4939	23.3995	32.5903	0.487273	0.672378	10.145	-1
71.25	85.1251	Inf	0.00071104	23.438	23.4736	23.4025	32.5892	0.487241	0.69809	10.1447	-1
71.5	85.5639	Inf	0.00071352	23.4603	23.4726	23.448	32.5891	0.486832	0.743802	10.1451	-1
71.75	85.7386	Inf	0.000716047	23.4466	23.4536	23.4397	32.5898	0.487667	0.766422	10.145	-1
72	86.1212	Inf	0.000718559	23.4428	23.4675	23.4182	32.5916	0.486769	0.677097	10.145	-1
72.25	86.3235	Inf	0.000721047	23.4568	23.478	23.4356	32.5892	0.486703	0.721305	10.145	-1
72.5	86.6362	Inf	0.000723569	23.4332	23.4477	23.4187	32.5886	0.485896	0.699704	10.1447	-1
72.75	87.0575	Inf	0.000726043	23.4551	23.4756	23.4346	32.5896	0.486207	0.650568	10.1447	-1
73	87.3812	Inf	0.000728539	23.4379	23.4668	23.4091	32.5865	0.486842	0.660594	10.1455	-1
73.25	87.6221	Inf	0.000731037	23.4349	23.4733	23.3965	32.5899	0.487195	0.645314	10.1452	-1
73.5	87.8559	Inf	0.000733525	23.4456	23.4642	23.4271	32.5895	0.486174	0.732286	10.145	-1
73.75	88.2578	Inf	0.000736021	23.4618	23.4945	23.4292	32.5894	0.487511	0.767188	10.1451	-1
74	88.6646	Inf	0.000738521	23.4465	23.4771	23.416	32.5892	0.486885	0.8223	10.1448	-1
74.25	88.8952	Inf	0.000741043	23.4392	23.4517	23.4267	32.5898	0.486659	0.823351	10.1451	-1
74.5	89.2128	Inf	0.000743555	23.4364	23.4517	23.4211	32.5894	0.486583	0.817474	10.1452	-1
74.75	89.5021	Inf	0.000746051	23.4455	23.4774	23.4137	32.5898	0.486853	0.795743	10.1449	-1
75	89.7111	Inf	0.000748553	23.4498	23.4761	23.4234	32.587	0.487321	0.739809	10.1448	-1
75.25	90.0228	Inf	0.000751048	23.4336	23.4611	23.4061	32.5892	0.486852	0.739152	10.1453	-1
75.5	90.2032	Inf	0.000753549	23.447	23.4853	23.4088	32.5909	0.488165	0.73625	10.1448	-1
75.75	90.5085	Inf	0.000756045	23.4342	23.467	23.4014	32.5889	0.486548	0.732277	10.1449	-1
76	90.8298	Inf	0.000758541	23.453	23.4748	23.4312	32.5891	0.486627	0.769678	10.1448	-1
76.25	91.1173	Inf	0.000761034	23.4494	23.4798	23.4191	32.5894	0.487102	0.804331	10.1452	-1
76.5	91.3668	Inf	0.000763546	23.4345	23.4609	23.4081	32.591	0.487201	0.797292	10.1454	-1
76.75	91.6904	Inf	0.000766057	23.4403	23.4679	23.4126	32.5892	0.485386	0.782209	10.1451	-1
77	91.9108	Inf	0.000768545	23.4384	23.462	23.4147	32.5888	0.486397	0.756459	10.1448	-1
77.25	92.1818	Inf	0.000771042	23.4404	23.467	23.4139	32.5891	0.486866	0.722367	10.1448	-1
77.5	92.5235	Inf	0.000773541	23.451	23.4858	23.4162	32.5897	0.486023	0.701884	10.1449	-1
77.75	92.7726	Inf	0.000776017	23.4371	23.4538	23.4205	32.5909	0.486847	0.689416	10.1449	-1
78	93.0916	Inf	0.000778521	23.4409	23.4678	23.4139	32.5904	0.487085	0.68915	10.1446	-1
78.25	93.4152	Inf	0.000781015	23.4468	23.4539	23.4397	32.5889	0.486119	0.719851	10.145	-1
78.5	93.6064	Inf	0.000783544	23.4528	23.4618	23.4439	32.5896	0.486591	0.760287	10.1447	-1
78.75	93.6923	Inf	0.000786026	23.4485	23.466	23.431	32.5896	0.486583	0.772162	10.1448	-1
79	94.0473	Inf	0.000788525	23.4522	23.482	23.4225	32.5891	0.486305	0.770387	10.1451	-1
79.25	94.3293	Inf	0.000791038	23.4356	23.4587	23.4126	32.5915	0.486205	0.762335	10.145	-1
79.5	94.5287	Inf	0.000793537	23.4595	23.4755	23.4434	32.5899	0.48638	0.733986	10.1446	-1
79.75	94.677	Inf	0.000796026	23.4427	23.4735	23.412	32.59	0.487213	0.715455	10.1447	-1
80	94.9874	Inf	0.000798543	23.4527	23.4711	23.4344	32.5894	0.486667	0.684332	10.1448	-1
80.25	95.1015	Inf	0.000801021	23.4532	23.4671	23.4393	32.5894	0.487138	0.676681	10.1447	-1
80.5	95.3932	Inf	0.000803509	23.4474	23.4834	23.4114	32.5908	0.486253	0.683837	10.145	-1
80.75	95.5404	Inf	0.000806003	23.4527	23.4693	23.4361	32.5909	0.487506	0.708304	10.1452	-1
81	95.7814	Inf	0.000808533	23.4531	23.4764	23.4299	32.5911	0.486695	0.78426	10.1447	-1
81.25	96.0749	Inf	0.000811016	23.4365	23.4581	23.415	32.5898	0.486915	0.802911	10.1449	-1
81.5	96.2849	Inf	0.00081351	23.4452	23.4677	23.4226	32.5896	0.486721	0.802755	10.1446	-1
81.75	96.5946	Inf	0.000816016	23.4449	23.461	23.4287	32.5907	0.486805	0.807335	10.1449	-1
82	96.7946	Inf	0.000818504	23.4553	23.4941	23.4165	32.5896	0.487368	0.762675	10.1448	-1
82.25	96.9247	Inf	0.000821033	23.4408	23.471	23.4107	32.5901	0.486089	0.78242	10.1449	-1
82.5	97.106	Inf	0.00082351	23.4461	23.4734	23.4189	32.5892	0.486931	0.778311	10.1449	-1
82.75	97.227	Inf	0.000826008	23.4385	23.455	23.4219	32.5894	0.486131	0.794797	10.1448	-1
83	97.3938	Inf	0.000828524	23.4531	23.4821	23.4242	32.5899	0.485945	0.813855	10.1445	-1
83.25	97.6323	Inf	0.000831004	23.4443	23.4679	23.4208	32.59	0.485943	0.809516	10.1449	-1
83.5	97.8734	Inf	0.000833511	23.4429	23.4635	23.4223	32.5897	0.48698	0.840061	10.1447	-1
83.75	97.9717	Inf	0.000836035	23.4517	23.4748	23.4285	32.5896	0.485899	0.875926	10.1448	-1
84	98.1362	Inf	0.000838524	23.4447	23.471	23.4184	32.5891	0.487095	0.886882	10.1445	-1
84.25	98.4013	Inf	0.000841052	23.4473	23.4733	23.4212	32.5902	0.487294	0.890269	10.145	-1
84.5	98.4476	Inf	0.000843524	23.4364	23.4633	23.4096	32.5889	0.486278	0.888326	10.1449	-1
84.75	98.6218	Inf	0.000846021	23.4587	23.48	23.4374	32.5902	0.486547	0.86998	10.145	-1
85	98.8457	Inf	0.000848513	23.4445	23.4763	23.4128	32.5905	0.486607	0.862167	10.1447	-1
85.25	99.0677	Inf	0.000851006	23.4579	23.4896	23.4262	32.5912	0.486583	0.867713	10.1451	-1
85.5	99.1617	Inf	0.000853511	23.4521	23.4781	23.426	32.5899	0.486374	0.829082	10.1446	-1
85.75	99.2609	Inf	0.000856024	23.4606	23.4806	23.4406	32.5918	0.486688	0.860934	10.1449	-1
86	99.4785	Inf	0.000858514	23.4612	23.4798	23.4426	32.5893	0.487221	0.850959	10.1449	-1
86.25	99.5564	Inf	0.000860998	23.4498	23.4689	23.4306	32.5892	0.487127	0.842664	10.1449	-1
86.5	99.6637	Inf	0.000863527	23.4602	23.4881	23.4323	32.5903	0.486811	0.814729	10.145	-1
86.75	99.7175	Inf	0.000866037	23.4737	23.5093	23.4381	32.59	0.486994	0.805212	10.1454	-1
87	99.9629	Inf	0.000868517	23.4364	23.4644	23.4085	32.5907	0.486734	0.751914	10.1447	-1
87.25	100.027	Inf	0.000871026	23.4607	23.4868	23.4345	32.5913	0.48721	0.756246	10.145	-1
87.5	100.064	Inf	0.000873512	23.4275	23.4473	23.4077	32.5905	0.486051	0.730498	10.1447	-1
87.75	100.192	Inf	0.000876017	23.4479	23.4756	23.4202	32.5898	0.48638	0.772935	10.1454	-1
88	100.312	Inf	0.000878507	23.4315	23.4586	23.4044	32.5907	0.486374	0.808063	10.1448	-1
88.25	100.499	Inf	0.000880995	23.4477	23.4708	23.4245	32.5899	0.486945	0.827064	10.1452	-1
88.5	100.606	Inf	0.000883494	23.4476	23.4746	23.4205	32.5906	0.486304	0.848446	10.1452	-1
88.75	100.647	Inf	0.000886	23.4624	23.4869	23.4379	32.591	0.486896	0.835201	10.145	-1
89	100.8	Inf	0.000888511	23.4366	23.4665	23.4067	32.5903	0.487712	0.808095	10.1454	-1
89.25	100.841	Inf	0.000891026	23.4488	23.4772	23.4204	32.589	0.48671	0.772027	10.1451	-1
89.5	100.921	Inf	0.000893501	23.4543	23.4711	23.4376	32.5902	0.486653	0.775245	10.1451	-1
89.75	101.017	Inf	0.000896014	23.4443	23.469	23.4196	32.5901	0.48724	0.746379	10.1451	-1
90	101.075	Inf	0.000898506	23.4506	23.4827	23.4184	32.5904	0.487041	0.720389	10.145	-1
90.25	101.264	Inf	0.000900992	23.4475	23.4778	23.4171	32.5904	0.486799	0.772821	10.1448	-1
90.5	101.249	Inf	0.000903481	23.4545	23.4797	23.4293	32.5899	0.485953	0.803431	10.1446	-1
90.75	101.424	Inf	0.000905972	23.4525	23.4859	23.419	32.5901	0.486841	0.817637	10.1448	-1
91	101.431	Inf	0.000908501	23.4371	23.4496	23.4245	32.5907	0.487294	0.838473	10.1447	-1
91.25	101.494	Inf	0.000911006	23.4581	23.4788	23.4374	32.5906	0.48687	0.800729	10.1448	-1
91.5	101.535	Inf	0.000913518	23.4424	23.466	23.4189	32.5904	0.486911	0.790589	10.1453	-1
91.75	101.745	Inf	0.000916016	23.4539	23.4725	23.4354	32.5902	0.486577	0.778235	10.145	-1
92	101.669	Inf	0.000918494	23.4537	23.4689	23.4385	32.5895	0.486866	0.76309	10.1452	-1
92.25	101.654	Inf	0.000920983	23.4598	23.4902	23.4293	32.5899	0.486581	0.777496	10.1448	-1
92.5	101.788	Inf	0.000923501	23.4464	23.4666	23.4263	32.5902	0.48668	0.816477	10.145	-1
92.75	101.816	Inf	0.00092599	23.4445	23.464	23.425	32.5891	0.486776	0.828739	10.1448	-1
93	101.92	Inf	0.000928492	23.4454	23.4698	23.421	32.5903	0.486492	0.820127	10.1447	-1
93.25	101.897	Inf	0.000930982	23.4424	23.4672	23.4177	32.5909	0.487324	0.844509	10.1448	-1
93.5	101.853	Inf	0.0009335	23.4712	23.4924	23.4499	32.5893	0.486176	0.820604	10.145	-1
93.75	101.966	Inf	0.000936007	23.4413	23.463	23.4195	32.5903	0.487418	0.809499	10.1445	-1
94	101.972	Inf	0.000938515	23.4568	23.4827	23.431	32.5909	0.485996	0.750931	10.1448	-1
94.25	101.997	Inf	0.000940982	23.4584	23.4915	23.4252	32.591	0.48615	0.7083	10.1449	-1
94.5	102.093	Inf	0.000943496	23.4548	23.4832	23.4264	32.5906	0.48655	0.687241	10.1449	-1
94.75	101.988	Inf	0.000946002	23.458	23.4787	23.4372	32.5907	0.486717	0.672109	10.1448	-1
95	102.007	Inf	0.000948497	23.4516	23.4766	23.4265	32.5912	0.485851	0.707458	10.1448	-1
95.25	102.072	Inf	0.000950988	23.4537	23.475	23.4324	32.5898	0.486931	0.715055	10.1447	-1
95.5	102.129	Inf	0.00095348	23.4498	23.4711	23.4285	32.5905	0.485733	0.751111	10.1452	-1
95.75	102.079	Inf	0.00095599	23.4586	23.4852	23.4319	32.5903	0.486628	0.746195	10.1449	-1
96	102.089	Inf	0.000958525	23.4487	23.4613	23.4361	32.5913	0.486383	0.70385	10.1448	-1
96.25	102.106	Inf	0.000960992	23.4513	23.4689	23.4338	32.5896	0.487132	0.667792	10.1454	-1
96.5	102.173	Inf	0.000963505	23.4498	23.4728	23.4268	32.5904	0.486233	0.643125	10.145	-1
96.75	102.154	Inf	0.000965989	23.4428	23.4746	23.411	32.5908	0.48712	0.65383	10.1454	-1
97	102.112	Inf	0.000968472	23.4631	23.4852	23.4411	32.5901	0.486766	0.651714	10.1452	-1
97.25	102.135	Inf	0.000970981	23.4497	23.4827	23.4166	32.5908	0.487692	0.685444	10.145	-1
97.5	102.133	Inf	0.000973468	23.4655	23.4919	23.4392	32.59	0.487375	0.702427	10.145	-1
97.75	102.09	Inf	0.000976003	23.4454	23.4761	23.4147	32.5909	0.487097	0.757939	10.1453	-1
98	102.162	Inf	0.000978482	23.4577	23.4776	23.4378	32.5907	0.487066	0.728098	10.145	-1
98.25	102.146	Inf	0.000980979	23.451	23.4739	23.4281	32.5909	0.487562	0.758318	10.1449	-1
98.5	102.175	Inf	0.000983479	23.4484	23.4642	23.4326	32.5896	0.487004	0.751837	10.145	-1
98.75	102.103	Inf	0.000985988	23.4522	23.4842	23.4203	32.5894	0.48662	0.732676	10.145	-1
99	102.136	Inf	0.000988497	23.4535	23.4811	23.4258	32.5899	0.486653	0.708001	10.1446	-1
99.25	102.078	Inf	0.000990994	23.4616	23.4835	23.4397	32.5909	0.486488	0.709691	10.145	-1
99.5	102.022	Inf	0.000993483	23.4388	23.4696	23.4079	32.5914	0.486218	0.706199	10.145	-1
99.75	102.071	Inf	0.000995974	23.4531	23.4719	23.4343	32.5908	0.486371	0.711778	10.1447	-1
100	102.032	Inf	0.000998478	23.4453	23.4785	23.4121	32.5904	0.486988	0.727694	10.145	-1
100.25	101.95	Inf	0.001001	23.4402	23.4638	23.4167	32.5912	0.486997	0.774904	10.1451	-1
100.5	102.004	Inf	0.00100347	23.4562	23.4805	23.432	32.5921	0.486831	0.767584	10.145	-1
100.75	101.993	Inf	0.00100598	23.4428	23.4596	23.426	32.5909	0.486798	0.779437	10.1452	-1
101	101.924	Inf	0.00100849	23.4579	23.4882	23.4276	32.5908	0.486858	0.778196	10.145	-1
101.25	101.965	Inf	0.00101097	23.4429	23.4726	23.4132	32.591	0.486701	0.761436	10.1447	-1
101.5	101.902	Inf	0.00101348	23.4524	23.4789	23.4259	32.5912	0.485953	0.713227	10.1447	-1
101.75	101.879	Inf	0.00101598	23.4448	23.4722	23.4174	32.5914	0.486828	0.719322	10.145	-1
102	101.814	Inf	0.00101849	23.4506	23.4704	23.4308	32.591	0.487209	0.715024	10.145	-1
102.25	101.766	Inf	0.00102096	23.4527	23.4763	23.4291	32.5891	0.48736	0.716975	10.1448	-1
102.5	101.838	Inf	0.00102345	23.4446	23.4673	23.4219	32.5896	0.4866	0.762902	10.145	-1
102.75	101.832	Inf	0.00102597	23.461	23.4799	23.442	32.5905	0.486259	0.786228	10.1452	-1
103	101.889	Inf	0.00102847	23.4626	23.4912	23.434	32.591	0.486791	0.74827	10.1449	-1
103.25	101.717	Inf	0.00103097	23.4484	23.4561	23.4408	32.5911	0.486627	0.777723	10.1448	-1
103.5	101.768	Inf	0.00103349	23.4515	23.4896	23.4133	32.5912	0.486053	0.769823	10.1452	-1
103.75	101.69	Inf	0.00103597	23.4632	23.4755	23.4509	32.5899	0.486697	0.699814	10.1456	-1
104	101.626	Inf	0.00103848	23.4437	23.4652	23.4223	32.5903	0.488057	0.704112	10.1449	-1
104.25	101.644	Inf	0.00104098	23.4716	23.4874	23.4557	32.5908	0.487274	0.747303	10.1448	-1
104.5	101.543	Inf	0.00104347	23.4479	23.483	23.4127	32.5902	0.485154	0.775972	10.1447	-1
104.75	101.527	Inf	0.00104598	23.4506	23.4736	23.4276	32.5905	0.486899	0.777966	10.1451	-1
105	101.5	Inf	0.00104847	23.4693	23.5014	23.4373	32.5897	0.486266	0.818445	10.145	-1
105.25	101.466	Inf	0.00105098	23.4474	23.4553	23.4395	32.59	0.48685	0.803409	10.1448	-1
105.5	101.547	Inf	0.00105347	23.4621	23.4817	23.4425	32.5903	0.487098	0.758753	10.1451	-1
105.75	101.366	Inf	0.00105598	23.4308	23.4601	23.4015	32.5894	0.486818	0.776121	10.1451	-1
106	101.374	Inf	0.0010585	23.4466	23.4736	23.4197	32.5899	0.487261	0.743056	10.145	-1
106.25	101.311	Inf	0.00106096	23.472	23.4912	23.4528	32.5925	0.486225	0.741526	10.1452	-1
106.5	101.261	Inf	0.00106346	23.4532	23.4736	23.4329	32.5924	0.485518	0.74763	10.145	-1
106.75	101.268	Inf	0.00106595	23.4675	23.479	23.456	32.5912	0.488054	0.748416	10.145	-1
107	101.167	Inf	0.00106847	23.4558	23.4874	23.4242	32.5922	0.48644	0.766489	10.145	-1
107.25	101.108	Inf	0.00107095	23.4661	23.4979	23.4342	32.591	0.486276	0.809374	10.1452	-1
107.5	101.059	Inf	0.00107345	23.4426	23.4714	23.4137	32.5931	0.485657	0.848646	10.1447	-1
107.75	101.019	Inf	0.00107597	23.4362	23.4638	23.4086	32.5912	0.487021	0.845329	10.1446	-1
108	101.097	Inf	0.00107845	23.4511	23.4604	23.4418	32.5913	0.487373	0.837179	10.1447	-1
108.25	100.909	Inf	0.00108096	23.4566	23.4791	23.4341	32.5919	0.486983	0.822698	10.1444	-1
108.5	100.96	Inf	0.00108347	23.4382	23.4619	23.4146	32.5901	0.487594	0.799393	10.1447	-1
108.75	100.988	Inf	0.00108597	23.4673	23.4997	23.4349	32.591	0.486048	0.801083	10.1451	-1
109	100.895	Inf	0.00108848	23.4621	23.4841	23.44	32.5896	0.485803	0.828964	10.1451	-1
109.25	100.97	Inf	0.00109095	23.4617	23.4981	23.4252	32.5904	0.487058	0.842381	10.145	-1
109.5	100.927	Inf	0.00109346	23.4616	23.4871	23.436	32.5921	0.485144	0.880932	10.1453	-1
109.75	100.988	Inf	0.00109596	23.4512	23.4681	23.4343	32.589	0.487096	0.929153	10.1448	-1
110	100.896	Inf	0.00109846	23.4488	23.4684	23.4291	32.5903	0.486073	0.937929	10.1445	-1
110.25	100.901	Inf	0.00110096	23.465	23.4787	23.4512	32.592	0.486408	0.908087	10.1447	-1
110.5	100.802	Inf	0.00110344	23.4428	23.4459	23.4398	32.591	0.487184	0.901882	10.1444	-1
110.75	100.945	Inf	0.00110599	23.4678	23.4925	23.4432	32.5913	0.486697	0.882543	10.1451	-1
111	100.786	Inf	0.00110846	23.4519	23.4703	23.4334	32.5899	0.486525	0.87917	10.1447	-1
111.25	100.775	Inf	0.00111095	23.4442	23.465	23.4233	32.5908	0.486312	0.89773	10.1455	-1
111.5	100.824	Inf	0.00111344	23.4417	23.4729	23.4104	32.5912	0.486192	0.880881	10.1447	-1
111.75	100.752	Inf	0.00111594	23.4494	23.4857	23.4131	32.5901	0.486938	0.893856	10.1451	-1
112	100.77	Inf	0.00111845	23.4737	23.5095	23.4379	32.5924	0.48639	0.900071	10.1453	-1
112.25	100.638	Inf	0.00112095	23.4425	23.4774	23.4077	32.5912	0.486183	0.91678	10.1452	-1
112.5	100.678	Inf	0.00112345	23.4579	23.4766	23.4391	32.5914	0.486136	0.898696	10.1451	-1
112.75	100.554	Inf	0.00112595	23.4603	23.4916	23.4289	32.5916	0.486136	0.865459	10.1457	-1
113	100.583	Inf	0.00112845	23.466	23.4987	23.4334	32.5931	0.485343	0.817723	10.145	-1
113.25	100.469	Inf	0.00113097	23.461	23.4835	23.4386	32.5911	0.486408	0.780671	10.1451	-1
113.5	100.569	Inf	0.00113343	23.4545	23.4753	23.4337	32.5923	0.485718	0.758636	10.1446	-1
113.75	100.376	Inf	0.00113593	23.4597	23.482	23.4373	32.5925	0.486021	0.803944	10.1449	-1
114	-0.605481	-1.00402	0.00113833	23.4567	23.4868	23.4266	32.5931	0.487672	0.0613335	10.1433	-1
114.25	-0.666518	-1.05857	0.00114092	23.4701	23.5078	23.4324	32.5926	0.489119	0.193926	10.1429	-1
114.5	-0.589938	-1.06815	0.00114346	23.4653	23.4898	23.4408	32.5924	0.486888	0.227579	10.1428	-1
114.75	-0.688321	-1.09068	0.00114592	23.4582	23.4855	23.4309	32.592	0.486886	0.213282	10.143	-1
115	-0.626837	-1.08752	0.00114844	23.4601	23.4899	23.4302	32.5931	0.487168	0.214731	10.1432	-1
115.25	-0.621905	-1.0903	0.00115095	23.4712	23.4977	23.4447	32.5927	0.48738	0.199167	10.143	-1
115.5	-0.686413	-1.08358	0.00115344	23.4708	23.4973	23.4443	32.5928	0.487593	0.21752	10.1432	-1
115.75	-0.68607	-1.09204	0.00115596	23.4609	23.4882	23.4336	32.5921	0.487022	0.20524	10.1434	-1
116	-0.677735	-1.10316	0.00115844	23.4602	23.4953	23.425	32.5926	0.487403	0.245085	10.1433	-1
116.25	-0.757041	-1.10217	0.00116094	23.4591	23.4865	23.4318	32.5919	0.487623	0.217077	10.1433	-1
116.5	-0.711544	-1.08858	0.00116346	23.4758	23.4948	23.4567	32.5933	0.487221	0.225152	10.1435	-1
116.75	-0.693976	-1.09216	0.00116594	23.4549	23.4882	23.4215	32.5935	0.487994	0.275585	10.1436	-1
117	-0.779207	-1.09839	0.00116844	23.4712	23.4873	23.4551	32.5917	0.487243	0.298311	10.1431	-1
117.2	-0.704691	-1.10163	0.00117046	23.481	23.5111	23.451	32.5931	0.487456	0.30954	10.1432	-1