File: results/Unknown_Resin/Tensile_Test_02/Tensile_test_2.csv
Displacement,Load
-8.46349e-10,-0.223924
9.12216e-07,-0.0784003
3.42338e-06,0.0138535
5.92997e-06,0.106045
8.42949e-06,0.136572
1.09172e-05,0.33973
1.34159e-05,0.481173
1.59272e-05,0.417514
1.84049e-05,0.626779
2.09121e-05,0.673763
2.33922e-05,0.79368
2.59118e-05,0.853755
2.8402e-05,0.949195
3.09095e-05,0.997
3.34229e-05,1.18663
3.59233e-05,1.18919
3.83989e-05,1.26441
4.09246e-05,1.42426
4.34068e-05,1.44989
4.59138e-05,1.54052
4.84172e-05,1.66189
5.09025e-05,1.86204
5.34148e-05,1.93331
5.59274e-05,1.99513
5.84241e-05,2.13196
6.09162e-05,2.19533
6.34218e-05,2.30699
6.58692e-05,2.39859
6.83905e-05,2.62114
7.09245e-05,2.69277
7.34239e-05,2.7835
7.59238e-05,2.90953
7.84039e-05,3.03544
8.09235e-05,3.22232
8.34283e-05,3.36267
8.59106e-05,3.5081
8.84101e-05,3.6168
9.08951e-05,3.6969
9.33865e-05,3.87125
9.59118e-05,4.0295
9.84087e-05,4.22104
0.000100906,4.28393
0.000103409,4.51755
0.000105912,4.67451
0.000108385,4.76382
0.000110898,4.96798
0.000113408,5.12624
0.000115893,5.31812
0.000118378,5.49362
0.000120891,5.57416
0.0001234,5.69805
0.000125911,6.0004
0.000128425,6.0387
0.000130924,6.27297
0.000133427,6.51123
0.000135892,6.59583
0.000138399,6.71462
0.000140905,7.00786
0.000143394,7.10412
0.000145906,7.37258
0.000148391,7.52578
0.000150909,7.74209
0.000153432,7.87817
0.000155915,8.12579
0.000158384,8.2573
0.00016089,8.41511
0.000163392,8.60129
0.000165897,8.79764
0.000168411,9.01436
0.00017089,9.22114
0.000173406,9.43424
0.000175905,9.65105
0.000178418,9.87864
0.000180904,10.1382
0.000183397,10.2653
0.000185892,10.4873
0.000188398,10.7373
0.000190896,11.0597
0.000193404,11.2461
0.000195913,11.4937
0.000198382,11.7521
0.000200898,11.9545
0.000203374,12.1263
0.00020589,12.4515
0.000208395,12.668
0.000210881,12.9598
0.000213395,13.2194
0.000215898,13.4325
0.000218397,13.6571
0.00022089,14.0906
0.000223401,14.2866
0.000225897,14.5832
0.000228354,14.9125
0.000230864,15.0852
0.000233359,15.3884
0.00023585,15.6662
0.000238358,16.009
0.00024087,16.2314
0.000243385,16.4592
0.000245878,16.7917
0.000248365,17.0486
0.000250897,17.392
0.000253394,17.651
0.000255881,17.9666
0.000258382,18.151
0.000260875,18.3813
0.000263387,18.6623
0.000265882,18.8758
0.00026839,19.122
0.000270885,19.4693
0.000273372,19.6639
0.000275884,19.933
0.00027838,20.2708
0.000280876,20.5777
0.000283366,20.8104
0.000285879,21.0593
0.000288361,21.4109
0.000290886,21.6246
0.000293359,21.8782
0.000295884,22.2754
0.000298371,22.6689
0.000300858,22.9037
0.000303346,23.0956
0.000305862,23.5186
0.000308358,23.7208
0.000310855,23.9533
0.000313387,24.2899
0.00031588,24.6512
0.000318369,24.9427
0.000320869,25.2058
0.000323377,25.5272
0.00032585,25.8845
0.000328345,26.1196
0.000330834,26.2908
0.000333358,26.6278
0.000335857,26.9555
0.000338357,27.1997
0.000340856,27.5684
0.000343334,27.9615
0.000345856,28.1834
0.000348336,28.3693
0.000350851,28.7738
0.000353327,29.195
0.000355799,29.4726
0.000358354,29.7764
0.000360841,30.0611
0.000363367,30.4082
0.000365869,30.6377
0.000368305,30.9196
0.000370861,31.3621
0.000373353,31.5844
0.00037579,31.8451
0.000378348,32.2187
0.000380793,32.7397
0.000383332,32.8121
0.000385839,33.1906
0.000388324,33.5338
0.000390823,33.8989
0.00039332,33.9849
0.000395832,34.4882
0.000398282,34.7601
0.000400806,34.9352
0.000403305,35.2085
0.000405786,35.5192
0.000408292,35.7302
0.000410789,36.0224
0.000413293,36.2207
0.0004158,36.7054
0.000418274,36.8125
0.000420773,37.1311
0.000423282,37.5996
0.000425794,37.8849
0.000428279,37.8551
0.000430786,38.2444
0.000433289,38.4977
0.000435796,38.6045
0.000438281,38.7509
0.000440787,39.1261
0.00044328,39.3621
0.000445779,39.4565
0.000448273,39.7178
0.000450775,39.9525
0.000453272,40.128
0.00045577,40.3793
0.000458276,40.6487
0.000460781,40.8456
0.000463293,40.999
0.000465764,41.29
0.000468287,41.5784
0.000470773,41.6813
0.000473264,42.0013
0.00047578,42.274
0.000478299,42.5653
0.000480784,42.807
0.000483276,43.1819
0.00048578,43.492
0.000488283,43.6307
0.000490768,43.8776
0.000493272,44.1283
0.000495779,44.4583
0.000498257,44.7175
0.000500772,44.8615
0.000503248,45.2505
0.000505778,45.3568
0.000508278,45.4328
0.000510753,45.7566
0.000513278,46.1343
0.000515763,46.3082
0.000518279,46.4894
0.000520754,46.7339
0.000523274,47.1245
0.000525773,47.2159
0.000528263,47.603
0.000530773,47.8605
0.000533267,48.2383
0.000535794,48.5267
0.000538248,48.7854
0.000540745,49.0122
0.000543259,49.3183
0.00054574,49.578
0.000548249,49.9672
0.000550774,50.0673
0.00055327,50.3264
0.000555772,50.524
0.000558264,50.8308
0.00056078,50.998
0.000563275,51.2954
0.000565765,51.5577
0.000568293,51.827
0.000570727,51.9643
0.000573257,52.3872
0.000575759,52.7043
0.00057827,52.9177
0.000580764,53.1306
0.000583255,53.6479
0.000585754,53.9771
0.000588243,54.2069
0.000590737,54.521
0.000593239,54.9888
0.000595733,55.3122
0.000598251,55.5944
0.000600749,55.9351
0.000603232,56.3005
0.000605737,56.4294
0.000608221,56.7439
0.000610754,57.1438
0.000613239,57.37
0.000615729,57.6047
0.000618241,57.8829
0.00062076,58.3631
0.000623268,58.5379
0.000625731,58.8801
0.000628236,59.2363
0.000630751,59.538
0.000633236,59.6917
0.00063572,60.0928
0.000638229,60.4817
0.00064073,60.8392
0.000643229,61.1171
0.000645728,61.5741
0.000648239,61.9158
0.000650735,62.2697
0.00065326,62.639
0.000655802,63.041
0.00065823,63.2403
0.000660777,63.6472
0.000663231,64.1672
0.000665771,64.5517
0.000668239,64.8608
0.000670711,65.1355
0.000673294,65.5899
0.000675724,65.8604
0.000678285,66.1511
0.000680797,66.5375
0.000683224,66.8889
0.000685781,67.1465
0.000688209,67.49
0.000690748,67.9372
0.000693288,68.1516
0.000695717,68.4518
0.000698288,68.9158
0.000700727,69.1104
0.000703279,69.5562
0.000705773,69.8313
0.000708256,70.0649
0.000710772,70.3908
0.000713207,70.6933
0.000715778,71.0914
0.000718261,71.4157
0.000720791,71.6797
0.000723288,71.8757
0.000725778,72.2047
0.000728297,72.448
0.000730749,72.7256
0.000733257,73.0363
0.000735785,73.4296
0.00073825,73.6347
0.000740777,73.9592
0.00074322,74.2875
0.000745775,74.5262
0.000748284,74.8643
0.000750758,75.1448
0.000753286,75.3852
0.000755705,75.6474
0.000758251,75.9819
0.000760763,76.2217
0.000763237,76.3963
0.000765776,76.6597
0.000768259,77.0397
0.00077077,77.321
0.000773252,77.4364
0.000775736,77.8421
0.000778256,77.9627
0.000780759,78.2008
0.000783259,78.4208
0.000785763,78.7437
0.000788276,78.8497
0.00079076,78.9494
0.000793246,79.16
0.000795769,79.5523
0.000798267,79.6645
0.000800769,79.8599
0.000803252,79.9761
0.000805748,80.1819
0.000808264,80.3164
0.000810763,80.5562
0.000813254,80.8158
0.000815758,80.9672
0.000818247,81.0922
0.000820754,81.5297
0.000823257,81.7758
0.000825752,81.8954
0.000828251,82.1651
0.000830735,82.5492
0.000833241,82.6669
0.000835739,82.8772
0.000838234,83.0727
0.000840771,83.2132
0.000843244,83.4029
0.00084576,83.6248
0.000848246,83.9431
0.000850743,84.1103
0.000853248,84.2784
0.000855726,84.5601
0.00085823,84.6828
0.000860743,84.8486
0.000863249,85.0294
0.000865768,85.2629
0.000868255,85.3502
0.00087072,85.3956
0.000873231,85.6757
0.000875732,86.0044
0.000878225,86.002
0.00088073,86.1034
0.000883232,86.2721
0.000885721,86.452
0.000888252,86.6298
0.000890754,86.7347
0.000893254,86.7575
0.000895733,86.9656
0.000898233,87.1222
0.000900718,87.3067
0.000903235,87.3723
0.000905746,87.3844
0.00090824,87.65625
0.000910732,87.7563
0.000913239,87.7732
0.000915715,87.8982
0.000918236,88.0353
0.000920748,88.1276
0.000923214,88.2125
0.000925714,88.3557
0.000928231,88.5564
0.000930733,88.4862
0.000933235,88.6067
0.000935718,88.6943
0.000938233,88.8099
0.000940719,88.7793
0.00094323,88.9663
0.000945726,89.0252
0.000948219,89.1049
0.000950705,89.0793
0.000953222,89.3068
0.000955729,89.3146
0.000958227,89.2316
0.000960742,89.3546
0.000963234,89.5773
0.000965721,89.5314
0.0009682,89.5776
0.000970724,89.6596
0.000973231,89.6669
0.000975698,89.7776
0.000978223,89.934
0.000980716,89.9072
0.000983229,89.949
0.000985722,90.0066
0.000988234,90.2213
0.000990737,90.0553
0.000993226,90.1582
0.000995725,90.3151
0.000998225,90.2629
0.00100072,90.2909
0.00100324,90.2666
0.00100573,90.3173
0.00100822,90.3176
0.00101072,90.36
0.00101323,90.3801
0.00101569,90.4853
0.00101819,90.4557
0.00102069,90.424
0.0010232,90.4967
0.0010257,90.5757
0.00102821,90.6103
0.00103071,90.7493
0.00103321,90.6187
0.00103571,90.6474
0.00103821,90.7474
0.00104069,90.7763
0.0010432,90.6646
0.00104568,90.7718
0.0010482,90.9145
0.00105071,90.8222
0.00105321,90.7949
0.00105572,90.7623
0.00105824,90.9395
0.0010607,90.8287
0.0010632,90.8436
0.00106569,90.9492
0.00106821,90.8872
0.00107069,90.8849
0.00107319,90.9581
0.0010757,91.033
0.00107819,90.935
0.00108069,90.8745
0.0010832,90.9895
0.00108568,90.974
0.00108818,90.8966
0.00109068,91.0139
0.00109316,91.0718
0.0010957,90.9637
0.00109819,91.057
0.00110068,90.9811
0.00110319,90.9565
0.00110572,90.8391
0.00110818,90.9456
0.00111069,90.9483
0.00111318,90.7886
0.00111567,90.7534
0.00111819,90.7844
0.00112069,90.6725
0.0011232,90.6829
0.00112569,90.7148
0.00112821,90.7779
0.0011307,90.5845
0.00113321,90.5591
0.00113569,90.5661
0.0011382,90.488
0.00114067,90.4474
0.00114318,90.4161
0.00114568,90.3412
0.00114819,90.4384
0.0011507,90.3694
0.00115317,90.3048
0.00115568,90.2065
0.00115818,90.2004
0.00116067,90.1093
0.00116317,90.0478
0.00116566,89.9015
0.00116818,89.8971
0.00117067,89.8822
0.00117319,89.7721
0.0011757,89.8615
0.00117819,89.8294
0.00118069,89.6411
0.00118317,89.6541
0.00118567,89.6278
0.00118819,89.5349
0.00119067,89.5003
0.00119319,89.5514
0.0011957,89.3762
0.0011982,89.3827
0.00120071,89.393
0.00120319,89.2507
0.00120569,89.2148
0.00120819,89.2235
0.00121067,89.1877
0.00121318,89.0633
0.00121568,89.034
0.00121819,88.9883
0.0012207,89.0099
0.00122319,88.9519
0.00122568,88.8787
0.0012282,88.903
0.00123069,88.8432
0.00123318,88.8075
0.00123566,88.8226
0.00123816,88.772
0.00124067,88.6941
0.00124319,88.6539
0.00124568,88.6962
0.00124818,88.7182
0.00125066,88.5557
0.00125315,88.5891
0.00125563,88.589
0.00125815,88.5442
0.00126065,88.6405
0.00126316,88.5663
0.00126566,88.5058
0.00126816,88.4372
0.00127066,88.5133
0.00127313,88.4444
0.00127562,88.4061
0.00127816,88.4359
0.00128064,88.4705
0.00128314,88.4249
0.00128567,88.3271
0.00128818,88.3741
0.00129066,88.396
0.00129318,88.2658
0.00129567,88.3328
0.00129815,88.3202
0.00130067,88.2085
0.00130312,88.1507
0.00130565,88.1659
0.00130815,88.119
0.00131065,88.112
0.00131316,88.1515
0.00131567,88.1324
0.00131817,87.9849
0.00132066,88.046
0.0013231,88.0394
0.00132561,87.9737
0.00132814,87.976
0.0013306,88.0388
0.0013331,87.9989
0.00133558,87.9012
0.00133808,87.9596
0.00134058,87.9254
0.0013431,87.856
0.00134559,87.8844
0.0013481,87.8916
0.0013506,87.9005
0.00135306,87.8296
0.0013556,87.8263
0.00135806,87.8312
0.0013606,87.8419
0.00136309,87.7613
0.00136557,87.8873
0.00136809,87.8146
0.00137059,87.8269
0.00137307,87.734
0.00137558,87.7623
0.00137806,87.7154
0.00138059,87.6709
0.0013831,87.7854
0.00138558,87.693
0.00138809,87.7147
0.00139059,87.673
0.00139309,87.6609
0.00139556,87.5794
0.0013981,87.5723
0.00140058,87.6003
0.00140306,87.6026
0.00140558,87.533
0.00140808,87.5522
0.00141061,87.5611
0.00141311,87.451
0.00141555,87.4783
0.00141809,87.5574
0.00142058,87.4216
0.00142307,87.4086
0.00142557,87.4722
0.00142805,87.4283
0.00143058,87.4216
0.00143305,87.4519
0.00143556,87.3712
0.00143811,87.3443
0.00144059,87.337
0.00144307,87.2977
0.00144556,87.2986
0.00144807,87.2721
0.00145053,87.228
0.00145308,87.2479
0.00145558,87.312
0.00145808,87.177
0.00146056,87.1907
0.00146307,87.2394
0.00146556,87.2111
0.00146805,87.2475
0.00147055,87.1872
0.00147305,87.1832
0.00147559,87.2049
0.00147806,87.1243
0.00148055,87.039
0.00148307,87.1024
0.00148559,87.1681
0.00148809,87.1726
0.00149055,87.1906
0.00149304,87.1217
0.00149554,87.0809
0.00149804,86.9555
0.00150053,87.0302
0.00150305,87.091
0.00150555,86.991
0.00150805,86.9879
0.00151056,87.1062
0.00151302,87.0972
0.00151555,87.0876
0.00151802,87.0029
0.00152053,87.0083
0.00152305,87.2177
0.00152553,86.9386
0.00152806,87.1166
0.00153056,87.0947
0.00153306,87.0406
0.00153555,87.0049
0.00153803,87.1223
0.00154056,87.0474
0.00154305,87.0069
0.00154555,87.0464
0.00154805,87.0927
0.00155056,86.9437
0.00155304,87.0542
0.00155554,87.0472
0.00155805,87.0359
0.00156055,87.0678
0.00156303,87.092
0.00156555,87.1146
0.00156809,87.0923
0.00157056,87.0974
0.00157311,87.1883
0.00157559,86.9506
0.00157811,87.1835
0.00158055,87.1334
0.00158305,87.148
0.00158561,87.0396
0.00158808,87.109
0.00159058,87.1028
0.00159301,87.1331
0.00159557,87.2334
0.00159808,87.2897
0.00160054,87.2107
0.00160311,87.1977
0.00160559,87.3051
0.00160809,87.2813
0.00161059,87.2473
0.00161309,87.1949
0.0016156,87.3259
0.00161809,87.3686
0.00162058,87.3674
0.00162307,87.3267
0.00162557,87.3248
0.0016281,87.3093
0.00163056,87.4728
0.00163309,87.3773
0.00163558,87.4413
0.00163807,87.2729
0.00164059,87.5042
0.00164307,87.4765
0.00164558,87.4313
0.00164808,87.4818
0.00165059,87.5975
0.00165308,87.4846
0.00165559,87.5737
0.00165808,87.5424
0.00166057,87.513
0.00166307,87.5523
0.00166556,87.5319
0.00166805,87.6818
0.00167057,87.5416
0.00167308,87.7135
0.00167558,87.6503
0.00167808,87.6373
0.00168056,87.6879
0.00168308,87.6076
0.00168555,87.5892
0.00168806,87.614
0.00169057,87.7071
0.00169305,87.7472
0.00169557,87.6733
0.00169805,87.801
0.00170058,87.949
0.00170307,87.7115
0.00170558,87.6677
0.00170807,87.7526
0.00171057,87.9225
0.00171306,87.7707
0.00171557,87.9658
0.00171806,88.0624
0.00172058,87.8153
0.00172307,87.8832
0.00172558,88.0831
0.00172808,88.0382
0.00173057,88.0824
0.00173306,88.0914
0.00173555,88.122
0.00173804,88.1265
0.00174055,88.0943
0.00174305,88.077
0.00174557,88.1881
0.00174806,88.1684
0.00175057,88.2569
0.00175305,88.3014
0.00175553,88.1627
0.00175806,88.2147
0.00176055,88.3698
0.00176303,88.3948
0.00176553,88.2369
0.00176806,88.4091
0.00177058,88.3186
0.00177305,88.3607
0.00177555,88.415
0.00177806,88.3843
0.00178052,88.4298
0.00178306,88.5261
0.00178554,88.4937
0.00178805,88.593
0.00179056,88.4562
0.00179307,88.5962
0.00179556,88.5562
0.00179803,88.4555
0.00180055,88.5852
0.00180304,88.6014
0.00180554,88.7156
0.00180805,88.63
0.00181054,88.8352
0.00181306,88.6959
0.00181554,88.6429
0.00181804,88.8286
0.00182056,88.724
0.00182304,88.876
0.00182552,88.7674
0.00182804,88.7924
0.00183053,88.8118
0.00183304,88.772
0.00183554,88.8491
0.00183804,88.8839
0.00184053,88.7946
0.00184304,88.8956
0.00184557,88.8422
0.00184804,88.8797
0.00185054,88.8727
0.00185305,89.0799
0.00185555,88.999
0.00185805,88.8981
0.00186053,88.989
0.00186304,89.0759
0.00186553,89.0988
0.00186803,88.9845
0.00187056,89.1581
0.00187305,89.0124
0.00187554,88.9606
0.00187805,89.0829
0.00188054,89.1467
0.00188303,89.1572
0.00188553,89.1116
0.00188806,89.1024
0.00189057,89.1851
0.00189301,89.1724
0.00189552,89.084
0.00189802,89.0647
0.00190051,89.0943
0.001903,89.1061
0.00190554,89.1646
0.00190803,88.9265
0.00191052,89.0127
0.00191304,89.1284
0.00191554,89.0069
0.00191806,89.0517
0.00192054,89.1066
0.00192301,89.0821
0.00192552,89.1083
0.001928,89.1735
0.00193051,89.0954
0.00193301,89.284
0.00193553,89.1055
0.00193802,89.1945
0.00194051,89.1044
0.00194303,89.2057
0.00194549,89.1907
0.00194801,89.1649
0.00195052,89.1179
0.00195301,89.28
0.00195551,89.218
0.001958,89.1906
0.00196052,89.1629
0.00196303,89.1859
0.00196552,89.1951
0.001968,89.2451
0.0019705,89.1258
0.00197298,89.1923
0.0019755,89.2202
0.00197799,89.3253
0.00198051,89.3037
0.00198301,89.3274
0.00198551,89.3617
0.00198801,89.3548
0.00199049,89.4286
0.00199301,89.3167
0.00199552,89.3881
0.00199799,89.5222
0.00200051,89.4569
0.00200298,89.48
0.0020055,89.506
0.002008,89.4542
0.00201051,89.5295
0.00201298,89.4977
0.00201549,89.5029
0.00201799,89.531
0.00202049,89.6749
0.00202299,89.7043
0.00202549,89.7402
0.00202798,89.8289
0.00203049,89.9165
0.00203298,89.9846
0.0020355,89.8707
0.00203801,90.0904
0.00204049,90.1078
0.00204299,90.0915
0.00204548,90.1588
0.00204798,90.1536
0.0020505,90.2083
0.002053,90.2261
0.00205549,90.3045
0.00205799,90.3284
0.00206049,90.263
0.00206297,90.3337
0.00206549,90.3585
0.00206798,90.1969
0.00207047,90.2629
0.002073,90.3653
0.00207551,90.4209
0.00207801,90.4146
0.00208052,90.4778
0.00208302,90.5472
0.00208551,90.4588
0.00208801,90.5869
0.00209048,90.5941
0.00209299,90.6164
0.00209549,90.7429
0.002098,90.7411
0.00210051,90.7527
0.00210298,90.7323
0.00210552,90.7735
0.002108,90.7418
0.00211049,90.7498
0.002113,90.7736
0.00211549,90.8232
0.00211795,90.7791
0.00212049,90.8596
0.00212301,90.6825
0.0021255,90.7557
0.00212799,90.6969
0.00213048,90.7879
0.00213297,90.7556
0.00213549,90.7948
0.00213796,90.8451
0.00214049,90.8189
0.00214297,90.7297
0.00214548,90.9241
0.00214796,90.915
0.00215047,90.865
0.00215297,90.8298
0.00215549,90.9457
0.00215795,90.8743
0.00216044,90.7637
0.00216295,90.7716
0.00216545,90.7884
0.00216794,90.806
0.00217044,90.7886
0.00217297,90.9372
0.00217546,90.7896
0.00217797,90.6063
0.00218047,90.8206
0.00218293,90.8351
0.00218547,90.6904
0.00218795,90.7349
0.00219045,90.8053
0.00219295,90.7429
0.00219548,90.6515
0.00219799,90.7591
0.00220048,90.7993
0.00220297,90.7998
0.00220548,90.8667
0.00220797,90.8904
0.00221046,90.8695
0.00221296,90.9057
0.00221546,90.9064
0.00221797,90.8693
0.00222046,90.9054
0.00222296,90.9357
0.00222547,90.8895
0.00222798,90.8075
0.00223046,90.9661
0.00223294,90.9982
0.00223548,90.9455
0.00223796,91.0687
0.00224045,91.0805
0.00224298,91.0579
0.00224546,91.0331
0.00224798,91.1482
0.00225047,91.1405
0.00225293,91.1244
0.00225545,91.1305
0.00225795,91.2347
0.00226046,91.1921
0.00226294,91.2048
0.00226546,91.2892
0.00226794,91.2863
0.0022704,91.2704
0.00227292,91.4113
0.00227539,91.4546
0.00227791,91.2545
0.00228041,91.4072
0.00228293,91.4532
0.00228542,91.357
0.00228792,91.4059
0.00229043,91.5176
0.00229289,91.483
0.0022954,91.4022
0.00229788,91.4823
0.00230041,91.6203
0.00230289,91.5162
0.00230536,91.56
0.00230787,91.7574
0.00231036,91.6357
0.00231289,91.5866
0.00231538,91.7114
0.00231788,91.8676
0.00232042,91.7139
0.00232289,91.6903
0.00232538,91.7524
0.00232787,91.7166
0.00233035,91.7719
0.00233286,91.8779
0.00233537,91.7989
0.00233787,91.7316
0.0023404,92.0167
0.00234289,91.7943
0.00234537,91.7886
0.00234786,91.8837
0.00235036,92.0376
0.00235286,92.0223
0.00235537,92.0423
0.00235788,92.2031
0.00236039,92.0349
0.00236286,91.9623
0.00236539,92.1308
0.00236787,92.1555
0.00237035,92.0718
0.00237285,92.2371
0.00237535,92.3627
0.00237785,92.2331
0.00238035,92.281
0.00238287,92.3316
0.00238539,92.1303
0.00238788,92.2729
0.0023904,92.3717
0.00239289,92.4706
0.00239541,92.359
0.00239792,92.4304
0.00240043,92.4216
0.00240293,92.5317
0.00240543,92.5101
0.00240793,92.5117
0.00241043,92.444
0.0024129,92.4951
0.00241541,92.676
0.00241785,92.7372
0.0024204,92.6228
0.00242288,92.5875
0.00242538,92.7204
0.00242786,92.6689
0.00243036,92.8329
0.00243286,92.8141
0.00243533,92.794
0.00243785,92.8115
0.00244038,92.8979
0.00244284,92.8352
0.00244533,92.8617
0.00244784,92.8782
0.00245037,92.9528
0.00245291,93.0458
0.00245538,93.0751
0.00245792,93.0569
0.0024604,93.0482
0.00246293,93.0033
0.00246543,93.201
0.00246788,93.1486
0.00247039,93.0394
0.00247288,93.1942
0.00247539,93.2561
0.00247792,93.1453
0.00248042,93.3454
0.00248291,93.2205
0.00248542,93.2608
0.00248791,93.361
0.00249039,93.367
0.0024929,93.3313
0.0024954,93.4303
0.00249781,93.4588
0.00250038,93.4971
0.0025029,93.4933
0.00250541,93.5775
0.00250791,93.622
0.0025104,93.5876
0.00251291,93.6253
0.0025154,93.8709
0.00251789,93.7059
0.0025204,93.6632
0.00252289,93.7886
0.0025254,93.9461
0.00252792,93.9149
0.00253042,93.9172
0.00253292,94.0299
0.0025354,93.9365
0.00253789,94.0412
0.0025404,94.1209
0.00254289,94.1511
0.00254539,94.1542
0.00254789,94.2095
0.0025504,94.4794
0.00255289,94.4008
0.00255541,94.3952
0.0025579,94.4255
0.00256039,94.4812
0.00256289,94.6261
0.00256535,94.6025
0.00256787,94.624
0.0025704,94.6365
0.00257288,94.7929
0.00257539,94.7532
0.00257788,94.8896
0.00258038,94.8413
0.00258288,95.0079
0.00258539,94.9768
0.00258789,95.0088
0.00259038,95
0.00259287,95.0859
0.00259537,95.0615
0.00259786,95.0963
0.00260037,95.2036
0.00260288,95.2088
0.00260536,95.1712
0.00260788,95.2804
0.00261039,95.4053
0.00261288,95.3682
0.00261538,95.4949
0.00261787,95.504
0.00262039,95.5638
0.00262286,95.5435
0.00262538,95.6841
0.00262788,95.6885
0.00263038,95.6598
0.00263288,95.6477
0.00263538,95.8349
0.00263787,95.702
0.00264035,95.9744
0.00264287,95.8377
0.00264538,95.752
0.00264786,96.0078
0.00265039,96.0184
0.00265289,96.1048
0.00265538,96.0435
0.00265785,96.1197
0.00266035,96.1047
0.00266285,96.1122
0.00266535,96.2373
0.00266786,96.218
0.00267036,96.2483
0.00267288,96.3506
0.00267539,96.3911
0.00267786,96.3001
0.00268036,96.3125
0.00268286,96.4902
0.00268535,96.4328
0.00268785,96.4852
0.00269034,96.5741
0.00269286,96.5053
0.00269536,96.5585
0.00269786,96.6681
0.00270037,96.6288
0.00270284,96.5944
0.00270535,96.7862
0.00270785,96.756
0.00271034,96.6685
0.00271286,96.7779
0.00271536,96.8754
0.00271787,96.98
0.00272036,96.9427
0.00272287,97.0666
0.00272536,97.1207
0.00272785,96.9366
0.00273034,97.0251
0.00273285,97.0993
0.00273534,97.1893
0.00273787,97.1427
0.00274034,97.1653
0.00274287,97.1878
0.00274535,97.2728
0.00274784,97.3726
0.00275036,97.4405
0.00275284,97.5063
0.00275533,97.4677
0.00275782,97.5374
0.00276033,97.525
0.00276283,97.6486
0.00276533,97.6844
0.00276783,97.6299
0.00277035,97.7984
0.00277285,97.7742
0.00277534,97.8601
0.00277783,97.8296
0.00278034,97.8606
0.00278284,97.9353
0.00278535,97.9322
0.00278784,98.0496
0.00279033,98.0932
0.00279285,98.1325
0.00279535,98.132
0.00279786,98.0907
0.00280036,98.09
0.00280285,98.2044
0.00280533,98.2625
0.00280784,98.3207
0.00281035,98.4008
0.00281283,98.3605
0.00281535,98.3928
0.00281786,98.4763
0.00282034,98.4417
0.00282283,98.5647
0.00282535,98.5632
0.00282783,98.5532
0.00283032,98.6747
0.00283281,98.7284
0.00283532,98.6874
0.00283781,98.7174
0.00284032,98.8453
0.00284284,98.7625
0.00284533,98.8809
0.00284782,98.95
0.00285033,98.8175
0.00285282,98.977
0.00285531,99.0348
0.00285782,98.9191
0.00286032,98.9698
0.00286284,99.1204
0.00286531,99.1912
0.00286782,99.1747
0.00287031,99.1281
0.00287281,99.0308
0.00287533,99.1088
0.00287781,99.2681
0.00288032,99.1864
0.00288284,99.2421
0.00288535,99.3369
0.00288785,99.4116
0.00289034,99.4448
0.00289285,99.3974
0.00289533,99.4329
0.00289781,99.4682
0.00290033,99.4479
0.00290283,99.5782
0.00290533,99.5009
0.00290785,99.464
0.00291032,99.6321
0.00291281,99.5747
0.00291531,99.6421
0.00291783,99.642
0.00292032,99.7427
0.0029228,99.7504
0.00292529,99.8367
0.0029278,99.8438
0.00293031,99.7933
0.00293279,99.8856
0.00293531,99.855
0.00293779,99.755
0.00294029,99.8935
0.0029428,99.9107
0.0029453,100.002
0.00294778,99.8762
0.00295028,99.8525
0.0029528,99.9096
0.00295532,99.9261
0.00295783,100.011
0.00296034,100.071
0.00296285,100.03
0.00296537,99.9589
0.0029679,100.074
0.00297038,100.034
0.00297287,100.044
0.00297537,100.134
0.00297788,100.101
0.00298037,100.197
0.00298287,100.211
0.00298537,100.318
0.00298784,100.202
0.00299036,100.27
0.00299286,100.196
0.00299533,100.241
0.00299783,100.287
0.00300036,100.403
0.00300285,100.349
0.00300535,100.382
0.00300787,100.5
0.00301036,100.264
0.00301284,100.549
0.00301534,100.518
0.00301784,100.5
0.00302034,100.487
0.00302286,100.505
0.00302534,100.553
0.00302784,100.515
0.00303034,100.474
0.00303285,100.656
0.00303536,100.661
0.00303783,100.611
0.00304032,100.708
0.00304286,100.764
0.00304531,100.69
0.00304785,100.749
0.00305034,100.816
0.00305283,100.882
0.00305534,100.997
0.00305784,101.045
0.00306033,100.986
0.00306283,101.033
0.00306532,101.002
0.00306583,101.19