File: data/PrimaryData/V4_Resin/Tensile_test_7.csv
Displacement (mm),Load (kN)
0.0,0.0011
0.0003,0.0013
0.0026,0.0037
0.0053,0.0064
0.0079,0.0089
0.0099,0.0107
0.0128,0.0135
0.0147,0.0151
0.017,0.0171
0.0197,0.0194
0.0216,0.021
0.0246,0.0237
0.0263,0.0251
0.0287,0.0271
0.0315,0.0295
0.0332,0.0305
0.0362,0.0331
0.038,0.0341
0.0403,0.0359
0.0431,0.0379
0.0448,0.0389
0.0479,0.0411
0.0497,0.0421
0.052,0.0435
0.0548,0.0458
0.0565,0.0468
0.0595,0.0489
0.0613,0.05
0.0637,0.0516
0.0664,0.0532
0.0682,0.0543
0.0711,0.0563
0.073,0.0573
0.0753,0.0587
0.0781,0.0604
0.0798,0.0612
0.0827,0.0631
0.0847,0.0641
0.087,0.0654
0.0896,0.0668
0.0916,0.0677
0.0943,0.0694
0.0964,0.0704
0.0987,0.0719
0.1013,0.0731
0.1033,0.0743
0.1058,0.0757
0.108,0.0768
0.1104,0.0781
0.1128,0.0794
0.115,0.0806
0.1175,0.0818
0.1197,0.083
0.1221,0.0845
0.1244,0.0855
0.1268,0.0869
0.1291,0.088
0.1314,0.0893
0.1338,0.0906
0.136,0.0917
0.1386,0.0935
0.1407,0.0943
0.1431,0.0957
0.1456,0.0971
0.1476,0.0979
0.1504,0.0997
0.1524,0.1004
0.1547,0.1014
0.1573,0.1024
0.1593,0.1023
0.1622,0.1031
0.164,0.1024
0.1664,0.1027
0.169,0.1032
0.1709,0.1032
0.1739,0.1043
0.1756,0.1039
0.178,0.1047
0.1808,0.1054
0.1825,0.1052
0.1856,0.1067
0.1873,0.1065
0.1897,0.1071
0.1925,0.108
0.1941,0.108
0.1972,0.1092
0.199,0.1094
0.2014,0.1101
0.2041,0.1114
0.2059,0.1119
0.2088,0.1135
0.2107,0.1141
0.213,0.1155
0.2158,0.1171
0.2175,0.1176
0.2204,0.1194
0.2224,0.1204
0.2247,0.1216
0.2273,0.1231
0.2292,0.1239
0.232,0.1257
0.2341,0.1269
0.2363,0.128
0.2389,0.1296
0.241,0.1306
0.2435,0.132
0.2457,0.1332
0.2481,0.1344
0.2505,0.1357
0.2527,0.1369
0.2551,0.138
0.2574,0.1393
0.2598,0.1404
0.2621,0.1413
0.2645,0.1427
0.2667,0.1435
0.2691,0.1446
0.2715,0.1458
0.2737,0.1466
0.2763,0.148
0.2784,0.1486
0.2807,0.1497
0.2833,0.1509
0.2853,0.1515
0.2881,0.1532
0.29,0.1536
0.2924,0.1545
0.295,0.1558
0.2969,0.1564
0.2999,0.1579
0.3017,0.1584
0.304,0.1593
0.3067,0.1607
0.3086,0.1612
0.3116,0.1628
0.3133,0.1633
0.3156,0.164
0.3185,0.1655
0.3202,0.1657
0.3233,0.1675
0.325,0.1678
0.3274,0.1688
0.3301,0.17
0.3318,0.1702
0.3349,0.1719
0.3367,0.1723
0.339,0.1731
0.3418,0.1744
0.3435,0.1746
0.3465,0.1761
0.3483,0.1765
0.3506,0.1774
0.3535,0.1788
0.3552,0.179
0.3581,0.1805
0.36,0.1808
0.3624,0.1819
0.3651,0.183
0.3669,0.1832
0.3697,0.1845
0.3717,0.1851
0.3741,0.1859
0.3767,0.187
0.3786,0.1874
0.3813,0.1885
0.3834,0.1892
0.3857,0.19
0.3883,0.191
0.3903,0.1915
0.3929,0.1925
0.395,0.1932
0.3974,0.194
0.3998,0.1949
0.402,0.1955
0.4045,0.1964
0.4067,0.1971
0.4091,0.198
0.4114,0.1987
0.4139,0.1995
0.4161,0.2002
0.4184,0.2009
0.4208,0.2019
0.423,0.2023
0.4257,0.2035
0.4277,0.204
0.4301,0.2048
0.4326,0.2056
0.4346,0.2061
0.4375,0.2074
0.4394,0.2077
0.4417,0.2086
0.4443,0.2095
0.4463,0.2099
0.4492,0.2113
0.451,0.2115
0.4533,0.2123
0.4561,0.2133
0.4579,0.2136
0.4609,0.2151
0.4627,0.2152
0.465,0.216
0.4678,0.2172
0.4695,0.2171
0.4726,0.2187
0.4744,0.2188
0.4766,0.2195
0.4795,0.2207
0.4812,0.2209
0.4842,0.2223
0.486,0.2225
0.4883,0.2233
0.4912,0.2245
0.4928,0.2245
0.4958,0.2258
0.4977,0.2261
0.5,0.227
0.5027,0.2279
0.5045,0.2282
0.5074,0.2293
0.5094,0.2297
0.5117,0.2305
0.5144,0.2315
0.5162,0.2318
0.5189,0.2328
0.521,0.2333
0.5234,0.2339
0.5259,0.2349
0.5279,0.2354
0.5305,0.2363
0.5327,0.2369
0.5351,0.2377
0.5375,0.2384
0.5397,0.2392
0.5422,0.2398
0.5444,0.2404
0.5468,0.2412
0.5491,0.2418
0.5515,0.2427
0.5538,0.2432
0.556,0.2439
0.5585,0.2449
0.5607,0.2452
0.5632,0.2462
0.5654,0.2467
0.5677,0.2474
0.5702,0.2484
0.5723,0.2486
0.5751,0.25
0.577,0.2501
0.5793,0.2509
0.582,0.2519
0.5839,0.2522
0.5868,0.2534
0.5887,0.2538
0.591,0.2544
0.5937,0.2554
0.5956,0.2556
0.5985,0.257
0.6003,0.2571
0.6027,0.2579
0.6054,0.259
0.6072,0.259
0.6103,0.2606
0.612,0.2607
0.6144,0.2614
0.6172,0.2625
0.6188,0.2627
0.6219,0.2641
0.6236,0.2641
0.626,0.2649
0.6288,0.2661
0.6305,0.2661
0.6335,0.2675
0.6353,0.2678
0.6377,0.2684
0.6404,0.2695
0.6422,0.2697
0.6451,0.2709
0.647,0.2712
0.6493,0.2719
0.6521,0.2729
0.6539,0.2732
0.6567,0.2743
0.6586,0.2747
0.6611,0.2754
0.6637,0.2765
0.6656,0.2767
0.6682,0.2777
0.6704,0.2785
0.6728,0.2792
0.6752,0.2799
0.6773,0.2804
0.6799,0.2813
0.6821,0.2819
0.6844,0.2826
0.6868,0.2835
0.6891,0.284
0.6915,0.2847
0.6937,0.2854
0.6961,0.2863
0.6984,0.2869
0.7009,0.2878
0.7031,0.2883
0.7054,0.2889
0.7079,0.2899
0.71,0.2904
0.7126,0.2914
0.7147,0.2918
0.717,0.2927
0.7196,0.2935
0.7216,0.2939
0.7245,0.2952
0.7264,0.2953
0.7287,0.2961
0.7314,0.2971
0.7332,0.2973
0.7363,0.2989
0.738,0.2989
0.7404,0.2996
0.7431,0.3008
0.7449,0.3009
0.7479,0.3023
0.7497,0.3024
0.752,0.3032
0.7548,0.3044
0.7565,0.3044
0.7596,0.3059
0.7613,0.306
0.7636,0.3068
0.7665,0.308
0.7682,0.3081
0.7712,0.3094
0.773,0.3097
0.7753,0.3104
0.7781,0.3115
0.7799,0.3117
0.7828,0.313
0.7847,0.3133
0.787,0.3141
0.7897,0.315
0.7915,0.3152
0.7944,0.3163
0.7964,0.3168
0.7987,0.3175
0.8014,0.3183
0.8032,0.3186
0.806,0.3198
0.808,0.3202
0.8104,0.3209
0.8129,0.3219
0.815,0.3222
0.8176,0.323
0.8197,0.3237
0.8221,0.3245
0.8245,0.3251
0.8267,0.3257
0.8291,0.3264
0.8314,0.3272
0.8338,0.3278
0.8361,0.3286
0.8384,0.3294
0.8408,0.3299
0.843,0.3305
0.8455,0.3314
0.8477,0.332
0.8503,0.333
0.8524,0.3334
0.8547,0.3341
0.8572,0.3349
0.8593,0.3354
0.8621,0.3366
0.864,0.3369
0.8664,0.3377
0.869,0.3387
0.8709,0.3389
0.8738,0.3403
0.8757,0.3404
0.878,0.3412
0.8807,0.3423
0.8826,0.3426
0.8855,0.3441
0.8873,0.3443
0.8897,0.345
0.8924,0.3462
0.8942,0.3464
0.8973,0.3479
0.899,0.348
0.9014,0.3488
0.9042,0.35
0.9059,0.3502
0.9089,0.3515
0.9107,0.3518
0.9131,0.3525
0.9158,0.3537
0.9175,0.3538
0.9205,0.3552
0.9224,0.3556
0.9247,0.3562
0.9275,0.3575
0.9292,0.3577
0.9321,0.359
0.934,0.3592
0.9364,0.36
0.9391,0.3611
0.9409,0.3614
0.9436,0.3625
0.9457,0.3629
0.9481,0.3639
0.9506,0.3646
0.9526,0.3651
0.9553,0.3662
0.9574,0.3667
0.9597,0.3675
0.9622,0.3682
0.9644,0.3688
0.9668,0.3697
0.969,0.3703
0.9714,0.3711
0.9738,0.3719
0.9762,0.3726
0.9784,0.3732
0.9807,0.3739
0.9832,0.3748
0.9854,0.3753
0.9879,0.3763
0.9901,0.3769
0.9924,0.3776
0.9949,0.3785
0.997,0.3789
0.9997,0.38
1.0017,0.3803
1.0041,0.3812
1.0066,0.382
1.0086,0.3824
1.0115,0.3838
1.0134,0.3839
1.0157,0.3846
1.0184,0.3857
1.0202,0.386
1.0232,0.3874
1.025,0.3876
1.0273,0.3883
1.0301,0.3893
1.0319,0.3896
1.0349,0.391
1.0367,0.3911
1.039,0.3919
1.0418,0.3932
1.0435,0.3933
1.0466,0.3945
1.0484,0.3949
1.0507,0.3955
1.0535,0.3968
1.0552,0.3968
1.0582,0.3983
1.06,0.3985
1.0623,0.3992
1.0651,0.4006
1.0668,0.4007
1.0698,0.402
1.0716,0.4024
1.074,0.4032
1.0768,0.4043
1.0785,0.4045
1.0814,0.4057
1.0834,0.4062
1.0857,0.4071
1.0884,0.408
1.0902,0.4084
1.093,0.4095
1.095,0.4099
1.0974,0.4108
1.1,0.4118
1.102,0.4123
1.1046,0.4133
1.1067,0.4139
1.1091,0.4146
1.1115,0.4155
1.1137,0.4162
1.1162,0.4169
1.1184,0.4176
1.1208,0.4185
1.1231,0.4192
1.1254,0.42
1.1278,0.4206
1.13,0.4213
1.1325,0.4222
1.1347,0.4228
1.1373,0.4237
1.1394,0.4242
1.1417,0.425
1.1442,0.4259
1.1463,0.4262
1.1491,0.4276
1.151,0.4277
1.1534,0.4286
1.156,0.4296
1.1579,0.4298
1.1608,0.4311
1.1627,0.4314
1.165,0.4321
1.1677,0.4332
1.1696,0.4334
1.1726,0.4348
1.1744,0.4349
1.1767,0.4358
1.1794,0.4368
1.1812,0.437
1.1843,0.4385
1.186,0.4386
1.1883,0.4393
1.1911,0.4404
1.1928,0.4406
1.1959,0.4419
1.1977,0.4422
1.2,0.4428
1.2028,0.444
1.2045,0.4442
1.2075,0.4454
1.2093,0.4457
1.2117,0.4463
1.2145,0.4476
1.2162,0.4478
1.219,0.4489
1.221,0.4492
1.2234,0.45
1.226,0.451
1.2279,0.4513
1.2306,0.4523
1.2327,0.4527
1.235,0.4535
1.2376,0.4544
1.2396,0.4549
1.2422,0.4557
1.2444,0.4564
1.2467,0.457
1.2492,0.458
1.2513,0.4584
1.2538,0.4592
1.256,0.4599
1.2585,0.4607
1.2608,0.4615
1.2631,0.4622
1.2655,0.4628
1.2677,0.4635
1.2702,0.4644
1.2724,0.4651
1.275,0.466
1.2771,0.4664
1.2793,0.4671
1.2819,0.4681
1.284,0.4685
1.2866,0.4696
1.2887,0.47
1.291,0.4708
1.2936,0.4718
1.2956,0.4721
1.2984,0.4733
1.3004,0.4735
1.3027,0.4743
1.3053,0.4754
1.3072,0.4755
1.3102,0.4769
1.312,0.477
1.3143,0.4779
1.3171,0.4789
1.3189,0.4791
1.3219,0.4805
1.3236,0.4807
1.326,0.4812
1.3288,0.4824
1.3305,0.4825
1.3336,0.484
1.3353,0.484
1.3377,0.4848
1.3405,0.4859
1.3422,0.4859
1.3452,0.4872
1.347,0.4874
1.3494,0.4881
1.3521,0.4889
1.3539,0.4872
1.3568,0.4875
1.3587,0.4876
1.3611,0.4884
1.3638,0.4897
1.3655,0.49
1.3684,0.4913
1.3703,0.4919
1.3727,0.4928
1.3754,0.4938
1.3773,0.4942
1.38,0.4954
1.382,0.4959
1.3844,0.4968
1.3869,0.4978
1.389,0.4983
1.3915,0.4992
1.3937,0.4998
1.3961,0.5006
1.3985,0.5015
1.4007,0.5021
1.4032,0.5029
1.4054,0.5037
1.4078,0.5044
1.4101,0.5051
1.4125,0.506
1.4148,0.5066
1.417,0.5073
1.4195,0.5081
1.4217,0.5088
1.4243,0.5097
1.4264,0.5101
1.4287,0.511
1.4312,0.5119
1.4333,0.5124
1.4361,0.5135
1.438,0.5138
1.4404,0.5145
1.443,0.5155
1.4449,0.5158
1.4479,0.5172
1.4497,0.5174
1.452,0.5181
1.4547,0.5191
1.4566,0.5195
1.4596,0.5208
1.4613,0.5208
1.4637,0.5217
1.4664,0.5228
1.4682,0.5229
1.4712,0.5243
1.473,0.5246
1.4753,0.5251
1.4782,0.5265
1.4798,0.5265
1.4829,0.5278
1.4847,0.5281
1.487,0.5286
1.4898,0.5299
1.4915,0.53
1.4945,0.5312
1.4963,0.5314
1.4987,0.5323
1.5014,0.5332
1.5032,0.5335
1.5061,0.5348
1.508,0.5351
1.5104,0.5357
1.513,0.5367
1.5149,0.537
1.5176,0.5381
1.5197,0.5385
1.5221,0.5394
1.5246,0.5403
1.5266,0.5405
1.5293,0.5416
1.5314,0.5421
1.5338,0.5429
1.5362,0.5436
1.5383,0.5442
1.5409,0.545
1.543,0.5456
1.5454,0.5463
1.5478,0.5471
1.5501,0.5478
1.5524,0.5485
1.5547,0.5491
1.5571,0.5499
1.5594,0.5505
1.5619,0.5514
1.5641,0.5519
1.5664,0.5525
1.5689,0.5534
1.571,0.5538
1.5737,0.555
1.5757,0.5553
1.5781,0.5561
1.5806,0.5569
1.5826,0.5573
1.5854,0.5585
1.5874,0.5586
1.5897,0.5595
1.5923,0.5606
1.5943,0.5607
1.5972,0.5621
1.599,0.5622
1.6014,0.5629
1.6041,0.564
1.6059,0.5641
1.6089,0.5655
1.6106,0.5657
1.613,0.5665
1.6158,0.5674
1.6175,0.5675
1.6206,0.5689
1.6223,0.569
1.6247,0.5697
1.6275,0.571
1.6292,0.571
1.6322,0.5722
1.634,0.5723
1.6364,0.5731
1.6392,0.5743
1.6408,0.5744
1.6438,0.5755
1.6457,0.5759
1.648,0.5765
1.6508,0.5775
1.6525,0.5777
1.6554,0.5789
1.6574,0.5792
1.6597,0.5798
1.6624,0.5808
1.6642,0.5812
1.667,0.582
1.669,0.5825
1.6714,0.5833
1.6739,0.5841
1.676,0.5846
1.6785,0.5853
1.6807,0.5859
1.6831,0.5865
1.6855,0.5873
1.6878,0.588
1.6901,0.5886
1.6924,0.5892
1.6948,0.59
1.6971,0.5906
1.6996,0.5914
1.7017,0.5918
1.7041,0.5925
1.7065,0.5933
1.7087,0.5938
1.7113,0.5948
1.7134,0.5951
1.7157,0.5959
1.7183,0.5967
1.7203,0.597
1.7231,0.5982
1.725,0.5984
1.7274,0.5991
1.73,0.6
1.7319,0.6002
1.7349,0.6015
1.7367,0.6017
1.739,0.6024
1.7417,0.6033
1.7436,0.6035
1.7466,0.6048
1.7483,0.6047
1.7507,0.6056
1.7534,0.6067
1.7552,0.6069
1.7583,0.6082
1.76,0.6081
1.7624,0.6088
1.7652,0.61
1.7668,0.61
1.7699,0.6114
1.7717,0.6115
1.774,0.6122
1.7768,0.6132
1.7785,0.6134
1.7815,0.6144
1.7833,0.6147
1.7857,0.6155
1.7884,0.6165
1.7902,0.6166
1.7931,0.6176
1.795,0.6178
1.7974,0.6187
1.8001,0.6196
1.8019,0.6199
1.8047,0.6207
1.8067,0.6209
1.809,0.622
1.8117,0.6227
1.8136,0.623
1.8163,0.6238
1.8184,0.6244
1.8207,0.625
1.8232,0.6258
1.8254,0.6264
1.8278,0.627
1.8301,0.6275
1.8325,0.6282
1.8348,0.6288
1.8371,0.6295
1.8395,0.6301
1.8417,0.6306
1.8442,0.6314
1.8464,0.6318
1.8489,0.6327
1.8511,0.6332
1.8534,0.6337
1.8558,0.6345
1.858,0.6351
1.8607,0.636
1.8627,0.6362
1.865,0.637
1.8676,0.6378
1.8696,0.638
1.8725,0.6393
1.8743,0.6393
1.8767,0.6401
1.8793,0.6409
1.8812,0.6411
1.8842,0.6423
1.886,0.6423
1.8884,0.6431
1.8911,0.644
1.8929,0.644
1.8959,0.6453
1.8977,0.6453
1.9,0.646
1.9028,0.647
1.9045,0.6471
1.9076,0.6482
1.9093,0.6482
1.9117,0.6486
1.9144,0.6493
1.9162,0.649
1.9191,0.65
1.921,0.6499
1.9233,0.6503
1.9261,0.651
1.9279,0.6508
1.9307,0.6516
1.9327,0.6517
1.935,0.6522
1.9377,0.6532
1.9396,0.6532
1.9423,0.6543
1.9444,0.6546
1.9467,0.6551
1.9493,0.656
1.9513,0.6564
1.9539,0.6572
1.956,0.6579
1.9584,0.6585
1.9609,0.6593
1.963,0.6596
1.9655,0.6605
1.9677,0.661
1.9701,0.6617
1.9725,0.6623
1.9748,0.6629
1.9771,0.6635
1.9794,0.6641
1.9818,0.6649
1.9841,0.6653
1.9865,0.6662
1.9888,0.6665
1.991,0.6671
1.9935,0.6679
1.9957,0.6683
1.9983,0.6692
2.0004,0.6695
2.0027,0.67
2.0053,0.6709
2.0073,0.6711
2.0101,0.6721
2.012,0.6724
2.0144,0.6729
2.017,0.6738
2.0189,0.6739
2.0219,0.6751
2.0237,0.6751
2.026,0.6757
2.0287,0.6766
2.0306,0.6766
2.0336,0.6779
2.0353,0.6778
2.0377,0.6785
2.0404,0.6794
2.0422,0.6794
2.0452,0.6806
2.047,0.6806
2.0494,0.6812
2.0521,0.682
2.0538,0.682
2.0569,0.6833
2.0587,0.6833
2.061,0.6837
2.0638,0.685
2.0655,0.6847
2.0685,0.6859
2.0703,0.6859
2.0727,0.6866
2.0754,0.6874
2.0772,0.6874
2.0801,0.6884
2.082,0.6886
2.0844,0.6892
2.087,0.6899
2.0889,0.69
2.0917,0.691
2.0937,0.6912
2.096,0.6916
2.0986,0.6925
2.1006,0.6928
2.1032,0.6934
2.1054,0.6937
2.1077,0.6943
2.1102,0.695
2.1124,0.6953
2.1148,0.6959
2.1171,0.6962
2.1195,0.6969
2.1218,0.6974
2.1241,0.6979
2.1265,0.6983
2.1288,0.6988
2.1312,0.6994
2.1334,0.6997
2.1359,0.7002
2.1381,0.7006
2.1404,0.7012
2.1429,0.7018
2.145,0.7021
2.1477,0.7029
2.1497,0.703
2.152,0.7035
2.1546,0.7041
2.1566,0.7044
2.1595,0.7053
2.1614,0.7054
2.1637,0.7059
2.1664,0.7066
2.1682,0.7066
2.1712,0.7077
2.173,0.7076
2.1754,0.7081
2.1781,0.7089
2.1799,0.7089
2.1829,0.71
2.1847,0.7099
2.187,0.7105
2.1898,0.7112
2.1915,0.7111
2.1946,0.7122
2.1963,0.7121
2.1987,0.7125
2.2015,0.7135
2.2032,0.7132
2.2062,0.7142
2.208,0.7144
2.2104,0.7147
2.2131,0.7155
2.2148,0.7154
2.2177,0.7163
2.2197,0.7165
2.222,0.7168
2.2247,0.7176
2.2266,0.7175
2.2293,0.7184
2.2313,0.7185
2.2337,0.719
2.2363,0.7196
2.2383,0.7197
2.2409,0.7203
2.243,0.7206
2.2454,0.7211
2.2479,0.7215
2.25,0.7217
2.2526,0.7222
2.2547,0.7226
2.2571,0.7229
2.2595,0.7234
2.2618,0.7237
2.2642,0.7241
2.2664,0.7244
2.2688,0.7248
2.2711,0.7251
2.2735,0.7257
2.2757,0.7259
2.278,0.7262
2.2805,0.7268
2.2827,0.727
2.2852,0.7277
2.2874,0.7277
2.2897,0.7281
2.2922,0.7286
2.2943,0.7287
2.2971,0.7294
2.299,0.7295
2.3014,0.7297
2.304,0.7305
2.3059,0.7305
2.3088,0.7313
2.3106,0.7312
2.3131,0.7315
2.3157,0.7325
2.3176,0.732
2.3205,0.7329
2.3223,0.7329
2.3247,0.7333
2.3274,0.734
2.3292,0.7337
2.3322,0.7348
2.334,0.7345
2.3364,0.7348
2.3391,0.7356
2.3409,0.7353
2.3439,0.7363
2.3456,0.7361
2.348,0.7364
2.3508,0.7373
2.3525,0.7369
2.3555,0.7379
2.3574,0.7376
2.3597,0.738
2.3624,0.7387
2.3642,0.7383
2.3671,0.7392
2.369,0.7392
2.3714,0.7395
2.3741,0.7401
2.3759,0.7398
2.3786,0.7406
2.3807,0.7405
2.3831,0.7409
2.3856,0.7413
2.3876,0.7413
2.3902,0.7419
2.3924,0.7418
2.3948,0.7422
2.3972,0.7425
2.3993,0.7427
2.4018,0.743
2.4041,0.7432
2.4064,0.7435
2.4088,0.7436
2.4112,0.744
2.4134,0.7441
2.4157,0.7444
2.4182,0.7448
2.4204,0.7447
2.423,0.7453
2.425,0.7453
2.4274,0.7454
2.4299,0.7459
2.432,0.7459
2.4348,0.7465
2.4367,0.7463
2.439,0.7466
2.4416,0.747
2.4436,0.7468
2.4465,0.7475
2.4483,0.7473
2.4507,0.7474
2.4533,0.748
2.4552,0.7477
2.4582,0.7484
2.46,0.7482
2.4623,0.7483
2.4651,0.7489
2.4669,0.7486
2.4699,0.7495
2.4717,0.7491
2.474,0.7493
2.4768,0.7498
2.4785,0.7495
2.4816,0.7502
2.4833,0.7498
2.4857,0.75
2.4885,0.7506
2.4902,0.7501
2.4932,0.7509
2.495,0.7505
2.4973,0.7507
2.5001,0.7513
2.5019,0.7509
2.5048,0.7514
2.5067,0.7512
2.509,0.7514
2.5117,0.7518
2.5136,0.7514
2.5163,0.7519
2.5184,0.7517
2.5207,0.7519
2.5234,0.7522
2.5252,0.752
2.528,0.7525
2.53,0.7523
2.5324,0.7524
2.5349,0.7527
2.537,0.7525
2.5396,0.7527
2.5417,0.7528
2.5441,0.7529
2.5465,0.753
2.5487,0.753
2.5511,0.7531
2.5534,0.7531
2.5558,0.7533
2.5581,0.7532
2.5605,0.7534
2.5628,0.7533
2.5651,0.7535
2.5675,0.7536
2.5697,0.7534
2.5723,0.7538
2.5744,0.7536
2.5767,0.7535
2.5792,0.7538
2.5813,0.7536
2.5841,0.7541
2.586,0.7537
2.5883,0.7538
2.591,0.7541
2.5929,0.7539
2.5958,0.7544
2.5977,0.7539
2.6001,0.754
2.6027,0.7543
2.6045,0.7537
2.6076,0.7544
2.6093,0.7538
2.6117,0.754
2.6144,0.7543
2.6162,0.7537
2.6193,0.7544
2.621,0.7539
2.6234,0.7538
2.6261,0.7542
2.6278,0.7537
2.6308,0.7542
2.6327,0.7537
2.635,0.7539
2.6378,0.7541
2.6395,0.7536
2.6425,0.7541
2.6444,0.7537
2.6467,0.7536
2.6494,0.7539
2.6512,0.7533
2.654,0.7537
2.656,0.7534
2.6584,0.7533
2.661,0.7536
2.6629,0.7532
2.6656,0.7533
2.6677,0.7531
2.6701,0.7531
2.6726,0.7531
2.6747,0.7529
2.6772,0.7529
2.6794,0.7529
2.6817,0.7527
2.6842,0.7528
2.6864,0.7526
2.6888,0.7525
2.6911,0.7524
2.6935,0.7524
2.6958,0.7522
2.6982,0.7521
2.7004,0.752
2.7027,0.7518
2.7052,0.7519
2.7074,0.7516
2.7099,0.7517
2.7121,0.7514
2.7144,0.7513
2.7169,0.7513
2.719,0.751
2.7217,0.7513
2.7237,0.7508
2.726,0.7507
2.7286,0.7509
2.7306,0.7503
2.7335,0.7507
2.7354,0.7503
2.7377,0.7501
2.7404,0.7503
2.7422,0.7496
2.7452,0.7501
2.747,0.7494
2.7493,0.7494
2.7521,0.7496
2.7539,0.7489
2.7569,0.7493
2.7586,0.7489
2.761,0.7486
2.7638,0.7489
2.7655,0.7482
2.7685,0.7487
2.7703,0.748
2.7727,0.7479
2.7754,0.748
2.7772,0.7473
2.7802,0.7478
2.782,0.7472
2.7844,0.7472
2.7871,0.7472
2.7889,0.7465
2.7918,0.7469
2.7937,0.7463
2.7961,0.7461
2.7987,0.7464
2.8005,0.7457
2.8033,0.7459
2.8053,0.7454
2.8077,0.7453
2.8103,0.7454
2.8122,0.7449
2.8149,0.7449
2.817,0.7445
2.8194,0.7444
2.8219,0.7442
2.824,0.744
2.8265,0.7439
2.8287,0.7435
2.8311,0.7432
2.8335,0.7432
2.8358,0.743
2.8381,0.7428
2.8404,0.7426
2.8428,0.7424
2.8451,0.7422
2.8475,0.742
2.8498,0.7417
2.8521,0.7416
2.8545,0.7413
2.8567,0.7411
2.8593,0.7412
2.8614,0.7407
2.8637,0.7404
2.8662,0.7405
2.8683,0.7399
2.8711,0.7402
2.873,0.7397
2.8754,0.7393
2.878,0.7393
2.8799,0.7387
2.8829,0.7391
2.8847,0.7384
2.887,0.7382
2.8897,0.7383
2.8915,0.7377
2.8946,0.7381
2.8963,0.7373
2.8987,0.7371
2.9015,0.7374
2.9032,0.7366
2.9062,0.7369
2.908,0.7362
2.9104,0.7359
2.9131,0.7361
2.9149,0.7354
2.9179,0.7357
2.9197,0.735
2.922,0.7348
2.9248,0.735
2.9265,0.7342
2.9294,0.7344
2.9313,0.7338
2.9337,0.7336
2.9364,0.7336
2.9382,0.7329
2.941,0.7331
2.943,0.7326
2.9454,0.7323
2.948,0.7324
2.9499,0.7318
2.9526,0.7318
2.9547,0.7314
2.9571,0.7312
2.9596,0.7311
2.9617,0.7305
2.9642,0.7305
2.9664,0.7302
2.9688,0.73
2.9712,0.7297
2.9734,0.7294
2.9759,0.7293
2.9781,0.729
2.9805,0.7287
2.9828,0.7285
2.9852,0.7284
2.9875,0.728
2.9897,0.7276
2.9922,0.7275
2.9944,0.7272
2.9969,0.7271
2.999,0.7267
3.0014,0.7264
3.0039,0.7265
3.006,0.726
3.0087,0.7259
3.0107,0.7254
3.013,0.7251
3.0156,0.7252
3.0176,0.7246
3.0205,0.7248
3.0223,0.7242
3.0247,0.7239
3.0273,0.724
3.0292,0.7233
3.0322,0.7237
3.034,0.7229
3.0364,0.7227
3.039,0.7228
3.0409,0.7221
3.0439,0.7226
3.0456,0.7218
3.048,0.7215
3.0508,0.7216
3.0525,0.721
3.0555,0.7214
3.0573,0.7205
3.0597,0.7203
3.0625,0.7204
3.0642,0.7197
3.0672,0.7199
3.069,0.7192
3.0714,0.719
3.0741,0.7192
3.0759,0.7184
3.0787,0.7187
3.0807,0.7181
3.0831,0.7179
3.0857,0.7179
3.0875,0.7172
3.0904,0.7174
3.0924,0.7169
3.0947,0.7167
3.0973,0.7167
3.0993,0.716
3.1019,0.7161
3.104,0.7156
3.1064,0.7155
3.1089,0.7153
3.111,0.7149
3.1135,0.7148
3.1157,0.7144
3.1181,0.7142
3.1205,0.7141
3.1228,0.7139
3.1251,0.7136
3.1274,0.7133
3.1297,0.7544