File: data/PrimaryData/V4_Resin/Tensile_test_2.csv
Displacement,Load
6.43149e-16,-0.291592
6.23681e-07,-0.119758
2.35443e-06,0.389123
4.36402e-06,0.794629
6.37169e-06,1.48271
8.38442e-06,1.65827
1.03575e-05,2.15914
1.23678e-05,2.50695
1.43924e-05,2.93185
1.63787e-05,3.09126
1.83881e-05,3.45451
2.0383e-05,3.70136
2.23587e-05,4.05708
2.43517e-05,4.29682
2.63654e-05,4.57521
2.83568e-05,4.9346
3.03475e-05,5.1891
3.23649e-05,5.55805
3.43676e-05,5.87136
3.63673e-05,6.18858
3.83816e-05,6.47535
4.03559e-05,6.71771
4.23558e-05,7.10233
4.43779e-05,7.32439
4.63647e-05,7.66396
4.83619e-05,7.92405
5.0328e-05,8.31024
5.23532e-05,8.59684
5.43543e-05,8.99117
5.6366e-05,9.39315
5.83499e-05,9.69778
6.03548e-05,10.0345
6.23797e-05,10.3505
6.43697e-05,10.6816
6.63828e-05,10.9672
6.83374e-05,11.3036
7.03503e-05,11.5394
7.23612e-05,12.0239
7.43576e-05,12.4648
7.63324e-05,12.9364
7.83547e-05,13.2
8.03538e-05,13.6272
8.23718e-05,14.0993
8.4365e-05,14.23
8.63707e-05,14.712
8.83702e-05,14.9398
9.03572e-05,15.5657
9.23689e-05,15.8705
9.43625e-05,16.3058
9.63518e-05,16.5781
9.8347e-05,17.1652
0.000100349,17.5185
0.000102347,17.9313
0.000104324,18.1491
0.000106364,18.6667
0.000108342,19.0756
0.000110336,19.4274
0.00011236,19.9163
0.000114351,20.4017
0.000116356,20.7768
0.000118335,21.1797
0.00012033,21.5987
0.000122278,22.0052
0.000124282,22.5299
0.000126279,22.9524
0.000128279,23.4011
0.000130297,23.7592
0.000132319,24.264
0.000134289,24.6897
0.000136302,25.1379
0.000138302,25.5433
0.000140286,25.8865
0.000142284,26.4048
0.000144282,26.8643
0.000146273,27.3957
0.000148279,27.7562
0.000150282,28.1508
0.000152269,28.6393
0.000154287,29.1218
0.000156291,29.5032
0.000158287,30.0273
0.000160293,30.4571
0.000162294,30.7814
0.000164287,31.3526
0.000166283,31.6479
0.000168277,31.9901
0.000170273,32.3307
0.000172272,32.8372
0.000174276,33.1596
0.00017626,33.637
0.000178271,33.8925
0.000180287,34.3129
0.000182281,34.6635
0.000184271,35.1409
0.000186287,35.5448
0.000188292,35.9165
0.000190278,36.3008
0.000192271,36.7134
0.000194267,37.0819
0.000196258,37.4404
0.000198267,37.7621
0.000200273,38.1137
0.000202272,38.408
0.000204278,38.8101
0.000206289,39.0662
0.000208282,39.424
0.000210279,39.7748
0.000212279,40.0448
0.000214264,40.4159
0.000216261,40.7684
0.00021825,41.0121
0.000220235,41.4115
0.000222264,41.7872
0.00022427,42.149
0.000226255,42.4435
0.000228277,42.7229
0.000230277,43.045
0.000232268,43.4548
0.000234269,43.7229
0.000236275,44.1237
0.000238253,44.4446
0.00024026,44.7494
0.000242262,45.166
0.000244254,45.3655
0.000246265,45.7979
0.000248268,46.1072
0.000250268,46.3893
0.000252281,46.7587
0.000254279,47.0549
0.00025627,47.409
0.000258263,47.8458
0.000260264,48.128
0.000262245,48.5668
0.00026423,48.6908
0.000266243,49.1948
0.000268262,49.6841
0.000270245,50.0024
0.000272273,50.4049
0.000274302,50.8405
0.000276253,51.1646
0.000278261,51.6118
0.000280256,51.8806
0.000282237,52.3251
0.000284258,52.6593
0.000286249,52.9868
0.000288251,53.288
0.000290245,53.6229
0.000292254,54.0118
0.000294249,54.4425
0.000296244,54.7675
0.000298275,55.0324
0.000300292,55.3104
0.000302272,55.6641
0.000304305,56.1572
0.000306293,56.378
0.000308256,56.7841
0.000310237,57.0865
0.000312242,57.4276
0.000314247,57.8685
0.000316278,58.2147
0.000318273,58.6812
0.000320282,59.0229
0.000322285,59.4542
0.000324266,59.8577
0.000326244,60.3129
0.000328273,60.6975
0.000330264,60.9846
0.000332275,61.58
0.000334262,61.8756
0.000336258,62.286
0.000338238,62.5772
0.000340235,63.0664
0.000342255,63.3777
0.000344212,63.7868
0.000346247,64.1353
0.000348268,64.6089
0.00035023,64.9983
0.000352268,65.3494
0.00035426,65.6832
0.000356243,66.0537
0.000358232,66.4383
0.000360238,66.7816
0.000362201,67.1443
0.000364227,67.6006
0.000366227,67.9338
0.000368269,68.3783
0.000370251,68.8431
0.000372304,69.2652
0.000374301,69.6954
0.000376264,70.0875
0.000378296,70.5013
0.000380272,70.9188
0.000382278,71.2516
0.000384293,71.6963
0.000386286,72.0641
0.000388262,72.434
0.000390288,72.8397
0.000392289,73.262
0.000394285,73.6394
0.000396293,74.086
0.0003983,74.3293
0.000400292,74.6893
0.000402302,75.089
0.000404295,75.4581
0.000406268,75.8586
0.000408269,76.2649
0.000410278,76.6373
0.000412268,77.0175
0.000414287,77.4839
0.000416288,77.9023
0.000418306,78.2739
0.00042029,78.7163
0.00042229,79.1271
0.000424283,79.5532
0.000426268,80.027
0.000428284,80.4182
0.000430267,80.9506
0.000432273,81.3198
0.00043427,81.8161
0.000436278,82.191
0.000438289,82.565
0.000440294,83.1505
0.000442281,83.5515
0.000444296,83.9878
0.000446297,84.3568
0.000448279,84.7431
0.000450262,85.2021
0.00045227,85.644
0.000454284,85.9071
0.000456262,86.3897
0.000458268,86.7844
0.000460266,87.2132
0.00046227,87.6235
0.000464289,87.9291
0.000466292,88.4579
0.000468251,88.8318
0.000470283,89.1839
0.000472278,89.5917
0.000474272,89.9547
0.000476266,90.3805
0.000478279,90.819
0.000480257,91.2043
0.000482287,91.6861
0.000484276,92.1009
0.000486236,92.4443
0.000488275,92.8317
0.000490275,93.2806
0.000492286,93.7196
0.00049427,94.1257
0.000496277,94.5619
0.000498276,95.1023
0.000500258,95.4125
0.000502278,95.7322
0.000504227,96.1841
0.000506271,96.586
0.000508268,97.1163
0.00051023,97.4973
0.000512253,98.0249
0.000514273,98.4817
0.000516304,98.96875
0.000518273,99.311
0.000520278,99.838
0.000522251,100.361
0.000524254,100.823
0.000526271,101.236
0.000528257,101.702
0.000530248,102.203
0.000532254,102.703
0.000534269,103.148
0.000536256,103.639
0.000538247,104.145
0.00054027,104.655
0.000542276,105.012
0.000544285,105.553
0.000546269,105.934
0.000548249,106.375
0.000550253,106.898
0.00055224,107.381
0.000554244,107.864
0.000556238,108.39
0.000558247,108.705
0.000560287,109.185
0.000562261,109.798
0.000564243,110.139
0.000566277,110.577
0.000568257,111.002
0.000570245,111.474
0.000572267,111.88
0.000574252,112.393
0.000576244,112.862
0.000578238,113.273
0.00058025,113.796
0.000582267,114.193
0.00058425,114.725
0.000586263,115.009
0.000588272,115.486
0.000590264,115.963
0.000592232,116.363
0.000594225,116.786
0.000596259,117.228
0.000598245,117.775
0.000600212,118.231
0.000602259,118.762
0.00060425,119.043
0.000606262,119.48
0.000608268,119.985
0.000610238,120.331
0.000612234,120.756
0.000614271,121.21
0.000616263,121.666
0.000618234,122.077
0.000620251,122.543
0.00062221,122.846
0.000624228,123.223
0.000626254,123.641
0.000628259,124.112
0.000630246,124.495
0.000632254,124.877
0.000634254,125.285
0.000636235,125.815
0.00063827,126.126
0.000640247,126.519
0.000642254,126.902
0.000644239,127.273
0.000646246,127.631
0.000648226,128.071
0.000650251,128.495
0.00065224,128.787
0.000654242,129.204
0.00065624,129.623
0.000658275,130.02
0.000660266,130.424
0.000662253,130.876
0.000664253,131.132
0.000666237,131.455
0.000668251,131.979
0.000670238,132.298
0.000672215,132.582
0.000674237,132.972
0.000676253,133.421
0.00067823,133.76
0.000680242,134.144
0.000682249,134.531
0.000684234,135.018
0.000686259,135.247
0.000688237,135.551
0.000690253,136.001
0.000692245,136.243
0.000694226,136.685
0.000696243,137.056
0.000698219,137.498
0.000700225,137.68
0.000702228,138.035
0.000704228,138.427
0.000706248,138.819
0.000708241,139.122
0.000710211,139.425
0.000712248,139.931
0.000714227,140.194
0.00071623,140.587
0.00071822,140.897
0.000720225,141.187
0.000722221,141.581
0.000724218,141.754
0.000726203,142.16
0.000728242,142.534
0.000730229,142.887
0.000732237,143.166
0.00073421,143.561
0.000736228,143.74
0.000738233,144.206
0.000740213,144.346
0.000742215,144.839
0.000744213,145.111
0.000746223,145.496
0.000748232,145.752
0.000750232,146.001
0.00075221,146.301
0.000754208,146.615
0.000756223,146.936
0.000758228,147.321
0.000760239,147.487
0.00076222,147.79
0.000764221,148.152
0.000766204,148.492
0.000768215,148.739
0.000770204,148.865
0.000772225,149.419
0.000774223,149.713
0.000776242,149.835
0.000778229,150.2
0.000780219,150.375
0.000782224,150.716
0.000784197,150.99
0.000786206,151.185
0.000788197,151.409
0.000790172,151.948
0.000792206,152.045
0.000794214,152.27
0.000796225,152.575
0.0007982,152.841
0.000800225,152.94
0.000802231,153.326
0.00080421,153.626
0.000806218,153.955
0.000808217,154.176
0.000810206,154.357
0.00081221,154.598
0.000814199,154.876
0.000816186,155.158
0.000818215,155.264
0.000820202,155.535
0.00082223,155.642
0.000824217,155.974
0.000826211,156.164
0.000828182,156.499
0.000830224,156.598
0.000832188,156.902
0.000834186,157.095
0.000836187,157.249
0.000838206,157.552
0.000840209,157.739
0.000842187,157.985
0.000844195,158.041
0.000846197,158.321
0.000848207,158.442
0.000850214,158.796
0.000852192,158.889
0.000854182,159.04
0.000856224,159.295
0.000858186,159.415
0.000860187,159.474
0.000862216,159.818
0.000864215,159.899
0.000866178,160.127
0.000868197,160.306
0.000870186,160.462
0.000872186,160.696
0.000874215,160.781
0.000876182,160.941
0.000878205,161.125
0.000880174,161.337
0.000882197,161.433
0.000884173,161.656
0.000886183,161.568
0.000888164,161.831
0.000890172,161.882
0.000892191,162.061
0.000894195,162.301
0.00089618,162.399
0.000898209,162.502
0.000900199,162.641
0.000902195,162.688
0.000904187,162.785
0.0009062,162.954
0.000908197,163.011
0.000910164,163.106
0.000912181,163.256
0.000914183,163.403
0.000916174,163.56
0.0009182,163.596
0.000920195,163.637
0.000922211,163.784
0.000924214,163.77
0.000926171,163.887
0.000928181,164.031
0.000930148,164.068
0.00093214,164.131
0.000934172,164.163
0.000936151,164.365
0.000938184,164.388
0.000940185,164.358
0.00094217,164.513
0.000944184,164.651
0.000946174,164.663
0.000948168,164.675
0.000950185,164.738
0.000952166,164.794
0.000954187,164.758
0.000956183,164.76
0.000958171,164.811
0.000960176,164.91
0.000962188,165.05
0.000964177,164.949
0.000966199,165.042
0.000968173,164.991
0.00097017,165.103
0.000972174,165.183
0.000974192,165.079
0.000976177,165.116
0.00097817,165.202
0.000980171,165.236
0.000982152,165.237
0.000984145,165.192
0.00098615,165.055
0.000988169,165.15
0.000990168,165.279
0.000992162,165.3
0.000994181,165.223
0.00099614,165.243
0.000998192,165.21
0.00100016,165.329
0.00100217,165.212
0.00100414,165.071
0.00100616,165.084
0.00100817,165.229
0.00101016,165.09
0.00101216,164.977
0.00101417,165.033
0.00101617,165.007
0.00101815,165.148
0.00102015,165.015
0.00102216,164.964
0.00102416,164.899
0.00102615,164.806
0.00102812,164.744
0.00103014,164.864
0.00103215,164.858
0.00103417,164.823
0.00103615,164.631
0.00103814,164.644
0.00104017,164.593
0.00104217,164.531
0.00104417,164.439
0.00104615,164.612
0.00104816,164.355
0.00105015,164.317
0.00105215,164.178
0.00105416,164.335
0.00105615,164.226
0.00105812,164.037
0.00106017,164.206
0.00106216,164.009
0.00106414,163.919
0.00106616,163.808
0.00106811,163.795
0.00107012,163.72
0.00107214,163.622
0.00107415,163.529
0.00107611,163.528
0.0010781,163.562
0.00108007,163.361
0.0010821,163.387
0.00108409,163.243
0.00108608,163.248
0.00108813,163.078
0.00109011,162.99
0.00109212,162.884
0.00109407,162.855
0.00109608,162.905
0.0010981,162.699
0.00110009,162.476
0.00110206,162.668
0.00110407,162.371
0.00110608,162.412
0.00110808,162.238
0.00111008,162.151
0.00111209,162.226
0.00111408,161.967
0.0011161,161.872
0.00111809,161.799
0.00112007,161.623
0.00112207,161.654
0.00112407,161.567
0.00112606,161.366
0.00112807,161.336
0.00113009,161.287
0.00113207,161.209
0.0011341,161.095
0.00113608,160.915
0.00113807,160.855
0.00114008,160.808
0.00114208,160.675
0.00114407,160.706
0.00114607,160.5
0.00114807,160.304
0.00115006,160.207
0.00115208,160.148
0.00115407,160.01
0.00115607,159.773
0.0011581,159.841
0.00116009,159.805
0.00116209,159.722
0.00116406,159.669
0.00116606,159.535
0.00116807,159.461
0.00117005,159.367
0.00117206,159.276
0.00117408,159.194
0.00117608,159.158
0.00117808,158.939
0.00118007,158.911
0.00118208,158.807
0.00118406,158.681
0.00118607,158.513
0.00118806,158.551
0.00119006,158.333
0.00119205,158.185
0.00119407,158.178
0.00119605,158.027
0.00119806,157.987
0.00120006,157.896
0.00120209,157.84
0.00120406,157.693
0.00120606,157.66
0.00120805,157.504
0.00121007,157.386
0.00121207,157.413
0.00121405,157.099
0.00121605,157.095
0.00121804,156.978
0.00122004,156.855
0.00122204,156.703
0.00122405,156.688
0.00122605,156.58
0.00122806,156.533
0.00123004,156.324
0.00123206,156.328
0.00123407,156.16
0.00123606,156.024
0.00123806,156.006
0.00124006,155.923
0.00124205,155.769
0.00124405,155.723
0.00124607,155.656
0.00124807,155.629
0.00125007,155.43
0.00125207,155.349
0.00125407,155.369
0.00125604,155.108
0.00125805,154.984
0.00126011,155.001
0.00126211,154.796
0.00126412,154.778
0.00126608,154.578
0.00126808,154.548
0.00127008,154.509
0.00127206,154.406
0.00127409,154.334
0.00127607,154.144
0.00127809,154.252
0.00128011,154.036
0.00128212,153.897
0.00128406,153.809
0.0012861,153.795
0.0012881,153.626
0.00129009,153.499
0.00129211,153.427
0.0012941,153.372
0.00129609,153.358
0.00129811,153.214
0.0013001,153.129
0.00130212,153.013
0.00130412,153.041
0.00130609,152.828
0.00130807,152.713
0.00131007,152.644
0.00131208,152.642
0.00131408,152.521
0.00131611,152.44
0.00131809,152.347
0.00132006,152.383
0.00132212,152.136
0.00132411,152.176
0.00132611,152.04
0.0013281,151.982
0.00133008,151.882
0.00133209,151.793
0.00133407,151.802
0.00133608,151.717
0.00133806,151.596
0.0013401,151.481
0.0013421,151.475
0.0013441,151.308
0.00134609,151.283
0.0013481,151.201
0.00135009,151.076
0.00135208,151.035
0.00135409,150.913
0.00135607,150.846
0.00135808,150.89
0.00136009,150.805
0.00136206,150.688
0.0013641,150.677
0.00136607,150.646
0.00136808,150.508
0.00137009,150.448
0.00137211,150.425
0.00137408,150.363
0.00137608,150.23
0.0013781,150.263
0.00138008,150.208
0.00138209,150.092
0.00138407,150.081
0.00138605,149.946
0.00138807,149.955
0.00139007,149.794
0.00139207,149.769
0.00139406,149.731
0.00139605,149.7
0.00139807,149.612
0.00140008,149.518
0.0014021,149.487
0.00140408,149.492
0.00140606,149.289
0.00140811,149.238
0.00141008,149.348
0.00141208,149.209
0.00141407,149.095
0.00141606,149.175
0.00141809,149.12
0.00142008,149.052
0.00142209,148.964
0.00142407,148.867
0.00142609,148.836
0.00142807,148.857
0.00143006,148.679
0.00143207,148.783
0.00143405,148.686
0.00143605,148.661
0.00143804,148.707
0.00144007,148.624
0.00144206,148.58
0.00144408,148.522
0.00144608,148.509
0.00144807,148.466
0.00145007,148.332
0.00145207,148.23
0.00145407,148.208
0.00145605,148.272
0.00145803,148.111
0.00146004,148.099
0.00146208,148.132
0.00146408,148.106
0.00146607,148.055
0.00146808,147.96
0.00147007,147.861
0.00147209,147.922
0.00147406,147.921
0.00147606,147.854
0.00147805,147.866
0.00148005,147.638
0.00148204,147.725
0.00148406,147.809
0.00148605,147.718
0.00148805,147.593
0.00149006,147.622
0.00149208,147.474
0.00149409,147.687
0.00149605,147.65
0.00149804,147.593
0.00150005,147.556
0.00150208,147.484
0.00150402,147.49
0.00150601,147.401
0.00150802,147.435
0.00151006,147.334
0.00151206,147.327
0.00151406,147.287
0.00151606,147.233
0.00151808,147.246
0.00152007,147.188
0.00152203,147.18
0.00152403,147.192
0.00152604,147.12
0.00152804,147.168
0.00153004,147.15
0.00153203,147.183
0.00153405,147.083
0.00153605,147.007
0.00153805,146.982
0.00154006,147.063
0.00154203,146.99
0.00154406,146.95
0.00154604,146.904
0.00154802,146.925
0.00155004,146.932
0.00155203,146.841
0.00155404,146.799
0.00155603,146.723
0.00155805,146.781
0.00156004,146.685
0.00156203,146.648
0.00156403,146.653
0.00156603,146.581
0.00156807,146.554
0.00157006,146.454
0.00157204,146.45
0.00157406,146.511
0.00157605,146.511
0.00157804,146.375
0.00158004,146.377
0.00158204,146.428
0.00158405,146.375
0.00158604,146.307
0.00158805,146.352
0.00159005,146.223
0.00159205,146.195
0.00159404,146.289
0.00159605,146.179
0.00159802,146.315
0.00160006,146.189
0.00160202,146.191
0.00160403,146.171
0.00160602,146.223
0.00160804,146.201
0.00161004,146.103
0.00161207,146.233
0.00161405,145.919
0.00161604,145.968
0.00161803,145.986
0.00162004,146.055
0.00162203,145.967
0.00162406,145.918
0.00162604,145.861
0.00162803,145.893
0.00163002,145.843
0.00163203,145.869
0.00163407,145.85
0.00163605,145.724
0.00163804,145.832
0.00164005,145.729
0.00164204,145.781
0.00164404,145.714
0.00164602,145.745
0.00164801,145.738
0.00165002,145.678
0.00165202,145.684
0.00165402,145.596
0.00165602,145.627
0.00165804,145.613
0.00166003,145.619
0.00166204,145.713
0.00166402,145.677
0.00166602,145.657
0.00166801,145.426
0.00167002,145.473
0.00167201,145.611
0.00167402,145.612
0.00167604,145.476
0.00167803,145.472
0.00168006,145.398
0.00168204,145.53
0.00168401,145.503
0.00168601,145.366
0.00168803,145.567
0.00169001,145.497
0.00169202,145.507
0.001694,145.534
0.00169598,145.405
0.001698,145.508
0.00170001,145.568
0.00170203,145.411
0.00170403,145.483
0.00170605,145.5
0.00170803,145.413
0.00171002,145.416
0.00171201,145.497
0.00171403,145.422
0.00171599,145.422
0.00171802,145.437
0.00172002,145.409
0.00172203,145.414
0.00172401,145.235
0.00172602,145.384
0.00172804,145.453
0.00173001,145.348
0.00173202,145.376
0.00173402,145.427
0.00173602,145.313
0.00173801,145.346
0.00173998,145.334
0.00174202,145.451
0.00174401,145.369
0.00174598,145.339
0.00174803,145.403
0.00175002,145.375
0.00175202,145.366
0.001754,145.36
0.00175601,145.457
0.00175798,145.359
0.00176,145.231
0.00176202,145.348
0.00176397,145.486
0.00176599,145.407
0.001768,145.416
0.00176999,145.388
0.00177202,145.52
0.00177399,145.372
0.00177601,145.431
0.001778,145.437
0.00178002,145.414
0.00178197,145.442
0.00178401,145.521
0.00178599,145.469
0.00178801,145.532
0.00179,145.5
0.00179198,145.569
0.00179399,145.528
0.00179599,145.57
0.00179799,145.622
0.00180001,145.588
0.00180199,145.512
0.00180402,145.602
0.001806,145.528
0.001808,145.621
0.00181,145.672
0.00181198,145.652
0.00181399,145.661
0.00181599,145.762
0.00181798,145.688
0.00181996,145.661
0.00182199,145.698
0.001824,145.709
0.00182598,145.763
0.001828,145.792
0.00182999,145.763
0.00183198,145.75
0.00183398,145.869
0.00183598,145.962
0.00183793,145.868
0.00183997,145.818
0.00184197,145.825
0.00184395,145.906
0.001846,145.989
0.00184798,145.837
0.00185,146.135
0.00185199,145.973
0.00185401,145.998
0.00185596,146.014
0.00185797,146.021
0.00185998,146.055
0.00186198,146.005
0.001863988,146.008
0.00186597,146.062
0.001868,146.034
0.00187,146.027
0.00187201,146.008
0.00187399,146.199
0.00187598,146.189
0.00187797,146.096
0.00187996,146.169
0.00188196,146.226
0.00188396,146.28
0.001886,146.156
0.00188796,146.173
0.00188998,146.233
0.00189198,146.187
0.00189399,146.166
0.00189596,146.332
0.00189799,146.212
0.00189999,146.293
0.00190198,146.289
0.00190396,146.249
0.00190598,146.338
0.00190797,146.24
0.00190994,146.197
0.00191195,146.35
0.00191396,146.431
0.00191596,146.381
0.00191797,146.314
0.00191996,146.455
0.00192199,146.511
0.00192396,146.505
0.00192596,146.417
0.00192794,146.422
0.00192991,146.426
0.00193196,146.561
0.00193394,146.469
0.00193592,146.454
0.00193794,146.474
0.00193994,146.534
0.00194198,146.434
0.0019439,146.589
0.00194597,146.522
0.00194795,146.51
0.00194994,146.418
0.00195196,146.56
0.00195398,146.639
0.00195593,146.556
0.00195795,146.695
0.00195994,146.636
0.0019619,146.678
0.00196394,146.619
0.00196596,146.725
0.00196794,146.689
0.00196992,146.755
0.00197193,146.678
0.00197391,146.787
0.00197592,146.793
0.00197792,146.674
0.00197993,146.696
0.00198188,146.774
0.00198389,146.691
0.00198588,146.755
0.00198788,146.709
0.00198994,146.9
0.0019919,146.819
0.00199388,146.694
0.0019959,146.847
0.00199792,146.839
0.00199988,146.812
0.00200189,146.85
0.00200389,146.915
0.00200588,146.96
0.0020079,146.876
0.00200989,146.873
0.00201192,146.984
0.00201391,146.921
0.0020159,147.019
0.00201791,146.988
0.00201992,146.935
0.00202188,147.103
0.0020239,146.998
0.00202588,146.977
0.00202787,147.006
0.00202989,146.988
0.0020319,147.112
0.00203389,147.038
0.00203591,147.067
0.00203791,147.028
0.0020399,147.132
0.0020419,147.159
0.00204388,147.119
0.00204591,147.15
0.00204788,147.106
0.00204986,147.166
0.00205189,147.143
0.00205386,147.236
0.00205589,147.235
0.00205794,147.212
0.00205991,147.218
0.00206189,147.27
0.00206391,147.271
0.00206588,147.258
0.00206788,147.258
0.00206988,147.353
0.00207187,147.334
0.00207386,147.299
0.00207589,147.366
0.00207787,147.469
0.00207986,147.387
0.00208188,147.43
0.0020839,147.474
0.00208591,147.524
0.00208787,147.455
0.00208988,147.568
0.00209187,147.546
0.00209387,147.463
0.00209587,147.473
0.00209788,147.5
0.00209989,147.569
0.00210187,147.505
0.00210386,147.655
0.00210587,147.655
0.00210787,147.632
0.00210988,147.726
0.00211187,147.717
0.00211386,147.759
0.00211587,147.709
0.00211786,147.76
0.00211988,147.787
0.00212186,147.815
0.00212385,147.842
0.00212584,147.825
0.00212788,147.935
0.00212986,147.877
0.00213188,147.95
0.00213387,147.907
0.00213588,147.88
0.00213787,147.938
0.00213989,148.005
0.00214188,148.118
0.00214387,147.92
0.00214586,148.083
0.00214786,148.091
0.00214987,148.104
0.00215189,148.157
0.00215388,148.097
0.00215592,148.181
0.0021579,148.16
0.00215987,148.18
0.00216185,148.212
0.00216387,148.224
0.00216586,148.268
0.00216787,148.274
0.00216988,148.456
0.00217186,148.364
0.00217388,148.297
0.00217586,148.324
0.0021779,148.395
0.0021799,148.37
0.00218193,148.404
0.00218386,148.39
0.00218589,148.524
0.00218789,148.45
0.00218992,148.507
0.00219191,148.551
0.00219391,148.542
0.00219586,148.562
0.0021979,148.535
0.00219989,148.585
0.00220191,148.597
0.00220391,148.563
0.00220593,148.631
0.00220791,148.58
0.00220991,148.682
0.00221191,148.701
0.0022139,148.719
0.00221587,148.695
0.0022179,148.715
0.00221984,148.741
0.00222184,148.772
0.00222389,148.734
0.00222591,148.918
0.00222791,148.8
0.0022299,148.961
0.00223189,148.899
0.0022339,148.929
0.00223591,148.95
0.00223791,148.933
0.00223984,148.953
0.0022419,148.907
0.00224389,148.992
0.00224589,149.006
0.00224791,148.958
0.00224992,149.038
0.00225189,149.008
0.00225389,149.045
0.00225591,149.037
0.00225792,149.051
0.00225987,149.037
0.00226189,149.118
0.0022639,149.183
0.00226589,149.214
0.0022679,149.123
0.00226989,149.23
0.0022719,149.152
0.00227389,149.228
0.0022759,149.137
0.00227789,149.127
0.00227991,149.198
0.0022819,149.251
0.00228387,149.198
0.00228589,149.249
0.0022879,149.211
0.00228989,149.272
0.00229189,149.215
0.00229373,-4.56988
0.00229588,-4.75053
0.00229788,-4.77047
0.00229987,-4.76914
0.00230189,-4.70514
0.0023039,-4.80063
0.00230589,-4.83286
0.00230789,-4.82743
0.00230988,-4.77494
0.00231189,-4.76506
0.00231388,-4.75971
0.00231589,-4.78488
0.00231787,-4.81103
0.00231987,-4.83908
0.00232138,-4.76599