File: data/PrimaryData/V4_Resin/Tensile_test_8.csv
Displacement (mm),Load (kN)
0.0,-0.0568
0.0003,-0.0564
0.0033,-0.0531
0.0057,-0.0506
0.0082,-0.0478
0.0103,-0.0459
0.013,-0.0433
0.0151,-0.0413
0.0174,-0.039
0.0199,-0.0368
0.022,-0.0349
0.0248,-0.0321
0.0267,-0.0304
0.029,-0.0283
0.0317,-0.0259
0.0336,-0.0243
0.0365,-0.0216
0.0384,-0.0199
0.0407,-0.0181
0.0434,-0.0154
0.0452,-0.0141
0.0482,-0.0112
0.05,-0.0099
0.0523,-0.0079
0.0551,-0.0054
0.0568,-0.0042
0.0599,-0.0015
0.0617,0.0
0.064,0.0018
0.0668,0.0044
0.0685,0.0056
0.0715,0.0082
0.0734,0.0096
0.0757,0.0116
0.0785,0.0139
0.0802,0.0151
0.0831,0.0176
0.085,0.019
0.0874,0.0207
0.0901,0.023
0.0919,0.0242
0.0947,0.0266
0.0967,0.028
0.099,0.0299
0.1017,0.0318
0.1036,0.0332
0.1063,0.0352
0.1084,0.0369
0.1107,0.0386
0.1132,0.0404
0.1153,0.0418
0.1179,0.0438
0.1201,0.0453
0.1224,0.0469
0.1249,0.0486
0.1271,0.0501
0.1295,0.0518
0.1317,0.0532
0.1341,0.0548
0.1364,0.0564
0.1388,0.058
0.1411,0.0593
0.1434,0.0608
0.1458,0.0625
0.1481,0.0636
0.1506,0.0654
0.1527,0.0665
0.155,0.0678
0.1576,0.0694
0.1597,0.0706
0.1624,0.0723
0.1644,0.0732
0.1667,0.0744
0.1693,0.076
0.1713,0.0768
0.1741,0.0788
0.176,0.0794
0.1784,0.0806
0.181,0.0822
0.1829,0.0828
0.1859,0.0848
0.1877,0.0851
0.19,0.0863
0.1928,0.088
0.1946,0.0884
0.1976,0.0902
0.1993,0.0904
0.2017,0.0916
0.2045,0.093
0.2062,0.0933
0.2093,0.0952
0.211,0.0954
0.2134,0.0964
0.2161,0.0977
0.2178,0.0979
0.2209,0.0995
0.2227,0.0999
0.225,0.1006
0.2278,0.1019
0.2295,0.1021
0.2325,0.1033
0.2343,0.1038
0.2367,0.1044
0.2394,0.1055
0.2412,0.1055
0.244,0.1064
0.2461,0.1068
0.2484,0.1073
0.251,0.1078
0.2529,0.1077
0.2556,0.108
0.2578,0.108
0.2601,0.108
0.2626,0.1078
0.2647,0.107
0.2672,0.1065
0.2694,0.107
0.2718,0.1077
0.2742,0.1083
0.2764,0.1087
0.2788,0.1093
0.2811,0.1098
0.2835,0.1107
0.2857,0.1111
0.2882,0.1122
0.2904,0.1126
0.2927,0.1134
0.2952,0.1143
0.2973,0.1146
0.3001,0.1158
0.3021,0.116
0.3044,0.1167
0.307,0.1177
0.309,0.1178
0.3119,0.1177
0.3137,0.1111
0.3161,0.1129
0.3187,0.1151
0.3206,0.1164
0.3236,0.1187
0.3253,0.1196
0.3277,0.1212
0.3304,0.1232
0.3322,0.1238
0.3353,0.1259
0.337,0.1266
0.3393,0.1278
0.3421,0.1295
0.3439,0.1301
0.3469,0.132
0.3487,0.1327
0.351,0.1338
0.3538,0.1354
0.3555,0.1359
0.3586,0.1378
0.3603,0.1384
0.3627,0.1394
0.3655,0.1411
0.3672,0.1414
0.3701,0.1431
0.372,0.1438
0.3744,0.145
0.3771,0.1465
0.3789,0.1469
0.3818,0.1486
0.3837,0.1494
0.386,0.1504
0.3887,0.1519
0.3906,0.1525
0.3933,0.154
0.3954,0.1548
0.3977,0.1559
0.4003,0.1573
0.4023,0.158
0.4049,0.1592
0.4071,0.1602
0.4094,0.1612
0.4119,0.1624
0.414,0.1634
0.4165,0.1644
0.4187,0.1654
0.4211,0.1666
0.4235,0.1675
0.4258,0.1686
0.4281,0.1695
0.4304,0.1704
0.4328,0.1717
0.4351,0.1725
0.4376,0.1738
0.4397,0.1744
0.4421,0.1754
0.4446,0.1766
0.4467,0.1772
0.4494,0.1786
0.4514,0.1792
0.4537,0.1802
0.4563,0.1814
0.4583,0.1819
0.4612,0.1835
0.463,0.1839
0.4654,0.1848
0.468,0.1861
0.4699,0.1864
0.4729,0.1881
0.4747,0.1885
0.477,0.1894
0.4798,0.1908
0.4815,0.191
0.4846,0.1926
0.4864,0.1929
0.4887,0.1937
0.4915,0.1952
0.4932,0.1953
0.4963,0.1969
0.498,0.1972
0.5004,0.1981
0.5032,0.1993
0.5049,0.1996
0.5079,0.2011
0.5097,0.2015
0.512,0.2023
0.5148,0.2036
0.5165,0.2038
0.5194,0.2051
0.5214,0.2055
0.5237,0.2065
0.5264,0.2075
0.5282,0.2079
0.531,0.209
0.5331,0.2097
0.5354,0.2105
0.538,0.2115
0.54,0.212
0.5426,0.213
0.5447,0.2137
0.5471,0.2144
0.5496,0.2153
0.5517,0.216
0.5542,0.2168
0.5564,0.2175
0.5588,0.2185
0.5612,0.2192
0.5635,0.22
0.5658,0.2207
0.5681,0.2214
0.5705,0.2223
0.5727,0.2228
0.5752,0.2239
0.5774,0.2245
0.5797,0.2252
0.5822,0.2261
0.5843,0.2265
0.587,0.2278
0.589,0.228
0.5914,0.2289
0.594,0.2299
0.596,0.2303
0.5988,0.2316
0.6007,0.2318
0.603,0.2325
0.6057,0.2337
0.6076,0.2339
0.6106,0.2354
0.6124,0.2355
0.6147,0.2363
0.6175,0.2374
0.6192,0.2375
0.6223,0.239
0.624,0.2391
0.6264,0.2399
0.6292,0.241
0.6308,0.2411
0.6339,0.2426
0.6357,0.2427
0.638,0.2433
0.6408,0.2445
0.6425,0.2446
0.6455,0.246
0.6473,0.2463
0.6497,0.247
0.6525,0.2482
0.6542,0.2483
0.6572,0.2496
0.659,0.2499
0.6614,0.2506
0.6641,0.2517
0.6659,0.2518
0.6687,0.2531
0.6707,0.2534
0.6731,0.2541
0.6757,0.2551
0.6776,0.2556
0.6803,0.2565
0.6824,0.257
0.6848,0.2577
0.6873,0.2586
0.6893,0.259
0.6919,0.26
0.694,0.2605
0.6964,0.2613
0.6989,0.262
0.7011,0.2626
0.7035,0.2634
0.7057,0.2641
0.7081,0.2648
0.7105,0.2654
0.7128,0.2663
0.7151,0.267
0.7174,0.2676
0.7198,0.2684
0.7221,0.269
0.7247,0.2699
0.7267,0.2705
0.7291,0.2711
0.7316,0.272
0.7337,0.2724
0.7364,0.2738
0.7384,0.274
0.7407,0.2746
0.7434,0.2757
0.7453,0.276
0.7482,0.2774
0.75,0.2776
0.7524,0.2782
0.7551,0.2792
0.7569,0.2795
0.7599,0.281
0.7617,0.281
0.764,0.2819
0.7668,0.2829
0.7685,0.283
0.7716,0.2846
0.7734,0.2846
0.7756,0.2853
0.7785,0.2866
0.7802,0.2867
0.7832,0.2879
0.785,0.2883
0.7874,0.2892
0.7902,0.2903
0.7918,0.2904
0.7948,0.2918
0.7967,0.2921
0.799,0.2928
0.8018,0.2939
0.8035,0.2942
0.8064,0.2953
0.8084,0.2956
0.8107,0.2964
0.8134,0.2976
0.8152,0.2977
0.818,0.2987
0.82,0.2992
0.8224,0.2999
0.825,0.3009
0.8269,0.3012
0.8296,0.302
0.8317,0.3026
0.8341,0.3035
0.8365,0.3041
0.8387,0.3047
0.8412,0.3053
0.8434,0.306
0.8458,0.3069
0.8481,0.3075
0.8505,0.3083
0.8528,0.3088
0.855,0.3094
0.8575,0.3104
0.8597,0.3109
0.8622,0.3119
0.8644,0.3123
0.8667,0.3131
0.8692,0.314
0.8714,0.3143
0.874,0.3155
0.8761,0.3157
0.8783,0.3166
0.881,0.3176
0.883,0.3179
0.8858,0.319
0.8877,0.3193
0.89,0.3201
0.8927,0.3211
0.8946,0.3214
0.8975,0.3226
0.8994,0.3229
0.9017,0.3238
0.9044,0.3247
0.9062,0.3249
0.9093,0.3262
0.911,0.3265
0.9134,0.3273
0.9161,0.3283
0.9179,0.3285
0.9209,0.33
0.9227,0.3302
0.9251,0.3311
0.9278,0.3322
0.9295,0.3323
0.9326,0.3337
0.9343,0.334
0.9367,0.3349
0.9395,0.336
0.9412,0.3362
0.9441,0.3376
0.946,0.338
0.9484,0.3387
0.9511,0.3399
0.9529,0.34
0.9557,0.3414
0.9577,0.3417
0.9601,0.3427
0.9627,0.3436
0.9646,0.3441
0.9673,0.345
0.9694,0.3457
0.9718,0.3464
0.9743,0.3472
0.9763,0.3478
0.9789,0.3487
0.9811,0.3494
0.9834,0.3501
0.9859,0.3509
0.9881,0.3516
0.9905,0.3524
0.9927,0.3531
0.9951,0.3538
0.9975,0.3545
0.9998,0.3553
1.0021,0.3559
1.0044,0.3566
1.0068,0.3577
1.009,0.3581
1.0116,0.3592
1.0138,0.3596
1.0161,0.3605
1.0186,0.3612
1.0206,0.3618
1.0235,0.3632
1.0254,0.3634
1.0277,0.3641
1.0303,0.3653
1.0323,0.3656
1.0352,0.367
1.037,0.3673
1.0394,0.368
1.0421,0.3693
1.0439,0.3695
1.047,0.3709
1.0487,0.371
1.051,0.372
1.0538,0.3732
1.0555,0.3733
1.0586,0.3749
1.0603,0.375
1.0627,0.3758
1.0655,0.3771
1.0672,0.3772
1.0702,0.3786
1.072,0.3789
1.0743,0.3797
1.0771,0.3809
1.0789,0.381
1.0819,0.3824
1.0837,0.3827
1.086,0.3835
1.0888,0.3846
1.0906,0.3849
1.0934,0.3861
1.0953,0.3866
1.0977,0.3874
1.1004,0.3884
1.1022,0.3887
1.105,0.3899
1.1071,0.3903
1.1094,0.3912
1.112,0.3921
1.114,0.3926
1.1166,0.3935
1.1187,0.3941
1.1211,0.395
1.1236,0.3958
1.1257,0.3964
1.1282,0.3972
1.1304,0.3978
1.1328,0.3986
1.1352,0.3994
1.1374,0.4002
1.1398,0.4007
1.1421,0.4015
1.1445,0.4023
1.1468,0.4029
1.1492,0.4039
1.1515,0.4044
1.1537,0.4051
1.1562,0.4059
1.1584,0.4065
1.161,0.4076
1.1631,0.408
1.1654,0.4088
1.168,0.4096
1.17,0.41
1.1728,0.4113
1.1747,0.4116
1.177,0.4124
1.1797,0.4134
1.1816,0.4136
1.1845,0.415
1.1863,0.4152
1.1887,0.416
1.1914,0.4171
1.1932,0.4173
1.1963,0.4187
1.198,0.4188
1.2004,0.4197
1.2032,0.4207
1.2049,0.421
1.2079,0.4223
1.2097,0.4225
1.2121,0.4232
1.2148,0.4244
1.2165,0.4245
1.2196,0.426
1.2214,0.4261
1.2237,0.4269
1.2265,0.4281
1.2282,0.4283
1.2311,0.4296
1.233,0.43
1.2354,0.4307
1.2381,0.4318
1.2399,0.432
1.2427,0.4332
1.2447,0.4335
1.2471,0.4343
1.2497,0.4353
1.2516,0.4357
1.2543,0.4368
1.2564,0.4373
1.2587,0.4381
1.2613,0.4389
1.2634,0.4395
1.2659,0.4404
1.2681,0.441
1.2704,0.4418
1.2729,0.4426
1.2751,0.4433
1.2775,0.4441
1.2797,0.4446
1.2822,0.4455
1.2844,0.4462
1.2869,0.4471
1.2891,0.4477
1.2914,0.4484
1.2939,0.4492
1.296,0.4497
1.2987,0.4508
1.3007,0.4514
1.3031,0.4521
1.3056,0.453
1.3076,0.4534
1.3104,0.4546
1.3124,0.4549
1.3147,0.4557
1.3173,0.4565
1.3193,0.457
1.3222,0.4584
1.324,0.4585
1.3264,0.4593
1.3291,0.4604
1.3309,0.4605
1.3339,0.462
1.3357,0.4622
1.338,0.4628
1.3408,0.4641
1.3425,0.4641
1.3456,0.4657
1.3474,0.4658
1.3497,0.4665
1.3525,0.4678
1.3542,0.4679
1.3572,0.4692
1.359,0.4694
1.3613,0.4701
1.3641,0.4713
1.3659,0.4714
1.3688,0.4728
1.3707,0.473
1.373,0.4737
1.3758,0.4749
1.3775,0.475
1.3804,0.4763
1.3824,0.4765
1.3847,0.4775
1.3874,0.4783
1.3892,0.4786
1.392,0.4798
1.394,0.4802
1.3964,0.481
1.399,0.4819
1.401,0.4823
1.4036,0.4833
1.4057,0.4839
1.4081,0.4846
1.4106,0.4855
1.4127,0.486
1.4152,0.4869
1.4174,0.4876
1.4198,0.4884
1.4222,0.4892
1.4244,0.4899
1.4268,0.4907
1.429,0.4915
1.4315,0.4923
1.4338,0.493
1.4363,0.494
1.4384,0.4945
1.4407,0.4954
1.4432,0.4962
1.4453,0.4967
1.448,0.4979
1.45,0.4983
1.4524,0.4991
1.455,0.5001
1.4569,0.5004
1.4598,0.5018
1.4617,0.5021
1.4641,0.5029
1.4667,0.5038
1.4686,0.5042
1.4716,0.5057
1.4734,0.5059
1.4757,0.5066
1.4784,0.5078
1.4802,0.508
1.4832,0.5094
1.485,0.5095
1.4874,0.5104
1.4901,0.5115
1.4919,0.5116
1.4949,0.5131
1.4967,0.5134
1.499,0.5141
1.5018,0.5152
1.5035,0.5155
1.5065,0.5167
1.5084,0.517
1.5107,0.5178
1.5135,0.5189
1.5152,0.5191
1.5181,0.5203
1.52,0.5207
1.5224,0.5215
1.5251,0.5225
1.5269,0.5228
1.5297,0.5239
1.5317,0.5243
1.534,0.5252
1.5367,0.5261
1.5386,0.5265
1.5413,0.5275
1.5434,0.5281
1.5457,0.5287
1.5482,0.5297
1.5503,0.5303
1.5529,0.5311
1.555,0.5316
1.5575,0.5325
1.5598,0.5332
1.5621,0.5339
1.5645,0.5346
1.5667,0.5351
1.5692,0.5361
1.5714,0.5369
1.5739,0.5377
1.5761,0.5382
1.5784,0.5389
1.5809,0.5399
1.583,0.5403
1.5856,0.5413
1.5878,0.5418
1.5901,0.5425
1.5926,0.5434
1.5946,0.5437
1.5974,0.545
1.5994,0.5453
1.6017,0.5459
1.6043,0.5471
1.6063,0.5473
1.6092,0.5488
1.611,0.5488
1.6134,0.5495
1.616,0.5506
1.6179,0.5508
1.6209,0.5522
1.6227,0.5524
1.6251,0.5532
1.6277,0.5542
1.6295,0.5544
1.6326,0.5558
1.6343,0.5558
1.6367,0.5565
1.6395,0.5577
1.6412,0.5578
1.6442,0.5593
1.646,0.5592
1.6484,0.56
1.6512,0.5612
1.6529,0.5612
1.6558,0.5625
1.6577,0.5626
1.6601,0.5635
1.6628,0.5645
1.6645,0.5648
1.6674,0.5659
1.6693,0.5662
1.6717,0.5669
1.6744,0.5679
1.6762,0.5682
1.679,0.5692
1.681,0.5696
1.6834,0.5704
1.686,0.5714
1.688,0.5716
1.6906,0.5725
1.6928,0.5731
1.6951,0.5739
1.6976,0.5745
1.6997,0.5751
1.7022,0.576
1.7044,0.5765
1.7068,0.5771
1.7092,0.5778
1.7115,0.5786
1.7138,0.5791
1.716,0.5797
1.7185,0.5806
1.7208,0.5811
1.7232,0.582
1.7254,0.5824
1.7277,0.5831
1.7302,0.584
1.7323,0.5843
1.735,0.5853
1.7371,0.5857
1.7394,0.5865
1.7419,0.5872
1.7439,0.5876
1.7469,0.5887
1.7487,0.5889
1.751,0.5895
1.7537,0.5906
1.7556,0.5908
1.7586,0.5921
1.7603,0.592
1.7627,0.5928
1.7654,0.5939
1.7672,0.5939
1.7703,0.5953
1.772,0.5955
1.7744,0.5961
1.7772,0.5971
1.7788,0.5973
1.7819,0.5987
1.7837,0.5986
1.786,0.5993
1.7888,0.6003
1.7905,0.6003
1.7935,0.6016
1.7953,0.6017
1.7977,0.6025
1.8004,0.6034
1.8022,0.6036
1.8051,0.6046
1.807,0.6049
1.8094,0.6056
1.8121,0.6066
1.8139,0.6068
1.8167,0.6079
1.8187,0.6082
1.8211,0.6087
1.8237,0.6097
1.8256,0.6099
1.8283,0.6107
1.8304,0.6111
1.8327,0.6119
1.8353,0.6125
1.8373,0.613
1.8399,0.6138
1.842,0.6144
1.8444,0.615
1.8469,0.6157
1.8491,0.6161
1.8515,0.6168
1.8537,0.6175
1.8561,0.6181
1.8584,0.6185
1.8608,0.6193
1.8631,0.6198
1.8654,0.6204
1.8679,0.6211
1.87,0.6215
1.8727,0.6224
1.8747,0.6227
1.8771,0.6234
1.8796,0.6241
1.8816,0.6245
1.8844,0.6255
1.8864,0.6257
1.8887,0.6262
1.8913,0.6271
1.8933,0.6272
1.8962,0.6285
1.898,0.6285
1.9004,0.6293
1.9031,0.6302
1.9049,0.6303
1.9079,0.6315
1.9097,0.6314
1.9121,0.6322
1.9147,0.6331
1.9166,0.6331
1.9196,0.6344
1.9213,0.6343
1.9237,0.6349
1.9265,0.636
1.9282,0.636
1.9312,0.6372
1.933,0.6372
1.9354,0.6377
1.9382,0.6388
1.9398,0.6387
1.9428,0.6399
1.9447,0.6399
1.947,0.6407
1.9498,0.6416
1.9516,0.6416
1.9544,0.6426
1.9564,0.6428
1.9587,0.6434
1.9614,0.6444
1.9632,0.6444
1.966,0.6452
1.968,0.6456
1.9704,0.6462
1.973,0.6469
1.975,0.6473
1.9776,0.6481
1.9798,0.6483
1.9821,0.6489
1.9845,0.6496
1.9867,0.65
1.9891,0.6505
1.9914,0.651
1.9938,0.6517
1.9961,0.6521
1.9985,0.6526
2.0008,0.6531
2.0031,0.6536
2.0055,0.6542
2.0077,0.6547
2.0103,0.6555
2.0124,0.6556
2.0147,0.6563
2.0172,0.6569
2.0193,0.6571
2.0221,0.658
2.024,0.6581
2.0264,0.6587
2.029,0.6595
2.0309,0.6596
2.0338,0.6607
2.0357,0.6606
2.038,0.6612
2.0407,0.6619
2.0426,0.662
2.0456,0.663
2.0473,0.6631
2.0497,0.6635
2.0524,0.6644
2.0542,0.6644
2.0573,0.6655
2.059,0.6653
2.0614,0.666
2.0642,0.6668
2.0659,0.6668
2.0689,0.6678
2.0707,0.6678
2.073,0.6683
2.0758,0.6691
2.0775,0.6689
2.0805,0.6701
2.0823,0.67
2.0847,0.6706
2.0875,0.6714
2.0892,0.6712
2.0921,0.6721
2.094,0.6722
2.0964,0.6727
2.0991,0.6734
2.1009,0.6734
2.1037,0.6742
2.1057,0.6743
2.1081,0.6747
2.1107,0.6754
2.1126,0.6755
2.1153,0.6762
2.1174,0.6764
2.1197,0.6768
2.1223,0.6773
2.1243,0.6774
2.1269,0.6782
2.1291,0.6783
2.1315,0.6788
2.1339,0.6792
2.1361,0.6796
2.1385,0.6799
2.1407,0.6801
2.1432,0.6806
2.1454,0.6809
2.1478,0.6814
2.1501,0.6817
2.1524,0.6821
2.1548,0.6825
2.157,0.6827
2.1597,0.6833
2.1617,0.6833
2.164,0.6839
2.1666,0.6844
2.1686,0.6845
2.1715,0.6855
2.1734,0.6853
2.1757,0.6857
2.1783,0.6863
2.1803,0.6862
2.1832,0.6873
2.185,0.6871
2.1874,0.6875
2.1901,0.6881
2.1919,0.6879
2.1949,0.689
2.1967,0.6888
2.199,0.6892
2.2018,0.69
2.2035,0.6898
2.2066,0.6908
2.2083,0.6905
2.2107,0.6909
2.2134,0.6916
2.2152,0.6913
2.2182,0.6922
2.22,0.692
2.2223,0.6923
2.2252,0.693
2.2269,0.6927
2.2298,0.6934
2.2317,0.6934
2.234,0.6937
2.2368,0.6943
2.2386,0.6941
2.2414,0.6947
2.2434,0.6947
2.2457,0.695
2.2484,0.6955
2.2503,0.6953
2.2529,0.6959
2.255,0.6958
2.2574,0.6959
2.26,0.696
2.262,0.6956
2.2646,0.6945
2.2667,0.6941
2.2691,0.6944
2.2715,0.6946
2.2737,0.6946
2.2761,0.6952
2.2784,0.6955
2.2808,0.6958
2.2831,0.6963
2.2855,0.6968
2.2878,0.6971
2.2901,0.6974
2.2925,0.698
2.2947,0.6981
2.2973,0.6989
2.2994,0.6988
2.3017,0.6993
2.3043,0.6999
2.3063,0.7
2.309,0.7007
2.3111,0.7006
2.3134,0.7011
2.316,0.7016
2.3179,0.7015
2.3208,0.7024
2.3227,0.7023
2.325,0.7028
2.3277,0.703
2.3296,0.703
2.3326,0.7041
2.3343,0.7038
2.3367,0.704
2.3394,0.7047
2.3412,0.7045
2.3442,0.7054
2.346,0.7053
2.3484,0.7056
2.3511,0.7062
2.3529,0.7058
2.3559,0.7068
2.3577,0.7065
2.3601,0.7068
2.3628,0.7074
2.3645,0.7071
2.3675,0.7079
2.3693,0.7077
2.3717,0.708
2.3745,0.7086
2.3762,0.7084
2.3791,0.709
2.381,0.7088
2.3834,0.709
2.3861,0.7096
2.3879,0.7094
2.3907,0.71
2.3927,0.7099
2.3951,0.7102
2.3977,0.7107
2.3996,0.7104
2.4023,0.711
2.4044,0.7108
2.4067,0.711
2.4092,0.7113
2.4113,0.7114
2.4139,0.7117
2.4161,0.7118
2.4185,0.712
2.4209,0.7121
2.4231,0.7124
2.4255,0.7126
2.4278,0.7126
2.4302,0.713
2.4324,0.7129
2.4349,0.7132
2.4371,0.7133
2.4394,0.7133
2.4419,0.7136
2.444,0.7135
2.4467,0.7138
2.4487,0.7137
2.4511,0.7139
2.4536,0.7142
2.4556,0.714
2.4585,0.7147
2.4604,0.7143
2.4627,0.7145
2.4653,0.7148
2.4672,0.7146
2.4702,0.7153
2.472,0.7148
2.4744,0.7149
2.4771,0.7154
2.4789,0.7151
2.4819,0.7157
2.4837,0.7152
2.4861,0.7153
2.4888,0.7158
2.4906,0.7153
2.4936,0.716
2.4953,0.7155
2.4977,0.7157
2.5005,0.716
2.5022,0.7155
2.5052,0.7163
2.507,0.7158
2.5094,0.7159
2.5121,0.7162
2.5139,0.7158
2.5168,0.7163
2.5187,0.7159
2.521,0.7161
2.5237,0.7164
2.5256,0.716
2.5284,0.7164
2.5304,0.7161
2.5328,0.7161
2.5354,0.7164
2.5373,0.716
2.54,0.7164
2.5421,0.7162
2.5444,0.7161
2.547,0.7162
2.549,0.716
2.5516,0.7163
2.5537,0.716
2.5561,0.7161
2.5586,0.7162
2.5607,0.7161
2.5632,0.7161
2.5654,0.7158
2.5678,0.716
2.5701,0.716
2.5725,0.7161
2.5748,0.716
2.5771,0.716
2.5795,0.7159
2.5817,0.7158
2.5842,0.7159
2.5864,0.7156
2.5887,0.7157
2.5912,0.7156
2.5933,0.7154
2.5961,0.7158
2.5981,0.7154
2.6004,0.7153
2.6029,0.7155
2.605,0.7151
2.6078,0.7156
2.6097,0.715
2.6121,0.7151
2.6147,0.7152
2.6166,0.7147
2.6195,0.7153
2.6213,0.7146
2.6237,0.7145
2.6264,0.7148
2.6282,0.7142
2.6312,0.7148
2.633,0.7141
2.6354,0.7142
2.6381,0.7143
2.6399,0.7138
2.6429,0.7142
2.6446,0.7135
2.647,0.7135
2.6498,0.714
2.6515,0.7132
2.6545,0.7136
2.6564,0.713
2.6587,0.713
2.6615,0.7132
2.6632,0.7126
2.6661,0.7129
2.668,0.7125
2.6704,0.7124
2.6731,0.7126
2.6749,0.7119
2.6777,0.7123
2.6797,0.7117
2.6821,0.7117
2.6847,0.7117
2.6866,0.7113
2.6893,0.7115
2.6914,0.711
2.6937,0.711
2.6962,0.7109
2.6984,0.7107
2.7009,0.7106
2.7031,0.7104
2.7054,0.7103
2.7078,0.71
2.7102,0.71
2.7124,0.7096
2.7147,0.7095
2.7172,0.7096
2.7194,0.7092
2.7219,0.7092
2.7241,0.709
2.7264,0.7087
2.7289,0.7086
2.731,0.7082
2.7337,0.7083
2.7357,0.708
2.738,0.7078
2.7406,0.7078
2.7426,0.7072
2.7455,0.7076
2.7474,0.7069
2.7497,0.7068
2.7523,0.7069
2.7542,0.7063
2.7572,0.7067
2.759,0.706
2.7614,0.7058
2.7641,0.706
2.7659,0.7052
2.7689,0.7056
2.7707,0.705
2.773,0.7048
2.7758,0.705
2.7775,0.7042
2.7806,0.7047
2.7823,0.7038
2.7847,0.7038
2.7875,0.704
2.7892,0.7033
2.7922,0.7037
2.794,0.7029
2.7964,0.7027
2.7991,0.7029
2.8009,0.7021
2.8038,0.7025
2.8057,0.7018
2.808,0.7016
2.8108,0.7017
2.8126,0.701
2.8154,0.7012
2.8173,0.7007
2.8197,0.7005
2.8224,0.7005
2.8242,0.6999
2.827,0.6999
2.829,0.6996
2.8314,0.6993
2.834,0.6993
2.836,0.6988
2.8386,0.6988
2.8407,0.6984
2.8431,0.6982
2.8456,0.6981
2.8477,0.6978
2.8502,0.6975
2.8524,0.6973
2.8548,0.6971
2.8572,0.6968
2.8595,0.6965
2.8618,0.6964
2.8641,0.6961
2.8665,0.6959
2.8687,0.6954
2.8712,0.6955
2.8734,0.6951
2.8757,0.6949
2.8782,0.6946
2.8803,0.6944
2.8831,0.6945
2.885,0.694
2.8874,0.6936
2.89,0.6936
2.892,0.6931
2.8949,0.6934
2.8967,0.6927
2.8991,0.6924
2.9017,0.6925
2.9036,0.6918
2.9066,0.6922
2.9084,0.6915
2.9107,0.6912
2.9135,0.6914
2.9152,0.6906
2.9183,0.6911
2.92,0.6903
2.9224,0.6902
2.9251,0.6902
2.9269,0.6894
2.9299,0.6898
2.9317,0.689
2.934,0.6889
2.9368,0.6889
2.9385,0.6881
2.9415,0.6885
2.9434,0.6878
2.9457,0.6876
2.9485,0.6877
2.9502,0.6869
2.9531,0.6871
2.955,0.6866
2.9574,0.6863
2.9601,0.6865
2.9619,0.6856
2.9646,0.686
2.9667,0.6853
2.9691,0.6852
2.9716,0.6851
2.9737,0.6847
2.9762,0.6846
2.9784,0.6841
2.9808,0.6839
2.9832,0.6838
2.9854,0.6834
2.9878,0.6833
2.9901,0.683
2.9925,0.6829
2.9948,0.6826
2.9971,0.6823
2.9995,0.682
3.0017,0.6818
3.0042,0.6816
3.0064,0.6814
3.0089,0.6812
3.0111,0.6807
3.0134,0.6806
3.0159,0.6806
3.018,0.68
3.0207,0.6801
3.0227,0.6796
3.0251,0.6794
3.0277,0.6794
3.0296,0.6789
3.0325,0.679
3.0344,0.6784
3.0367,0.6782
3.0394,0.6783
3.0412,0.6775
3.0442,0.6779
3.046,0.6773
3.0483,0.6769
3.0511,0.6771
3.0529,0.6764
3.0559,0.6768
3.0564,0.7167