File: results/Unknown_Resin/Tensile_Test_01/Tensile_test_1.csv
Displacement,Load
4.03323e-17,-0.320076
7.49246e-07,-0.0287332
1.70276e-06,0.0373586
2.70043e-06,0.216456
3.71528e-06,0.485867
4.70298e-06,0.496551
5.7189e-06,0.597843
6.7071e-06,0.693047
7.70119e-06,0.761833
8.6742e-06,0.770905
9.69495e-06,0.945924
1.06977e-05,0.927732
1.16991e-05,0.944041
1.26892e-05,1.12875
1.36905e-05,1.10801
1.46982e-05,1.1826
1.56927e-05,1.25993
1.66843e-05,1.27853
1.77031e-05,1.22245
1.87079e-05,1.33024
1.96954e-05,1.44809
2.07002e-05,1.45921
2.17028e-05,1.50978
2.27002e-05,1.58965
2.37224e-05,1.63211
2.47292e-05,1.63578
2.57104e-05,1.78775
2.66969e-05,1.78512
2.76981e-05,1.8416
2.87075e-05,1.97857
2.96926e-05,2.01797
3.07026e-05,2.09367
3.16987e-05,2.03296
3.2694e-05,2.22504
3.36855e-05,2.18168
3.4689e-05,2.3322
3.56923e-05,2.31791
3.66966e-05,2.46639
3.77025e-05,2.42905
3.86941e-05,2.49508
3.96879e-05,2.64435
4.06898e-05,2.58441
4.16997e-05,2.71467
4.26977e-05,2.70522
4.37035e-05,2.81507
4.46872e-05,2.83781
4.56998e-05,2.94791
4.66936e-05,2.90073
4.77021e-05,3.09773
4.87204e-05,3.14224
4.97054e-05,3.10018
5.07118e-05,3.31811
5.17077e-05,3.27399
5.26909e-05,3.27524
5.36952e-05,3.29772
5.4696e-05,3.39384
5.56998e-05,3.54602
5.66681e-05,3.62951
5.76833e-05,3.59176
5.86849e-05,3.67226
5.96643e-05,3.72945
6.06998e-05,3.89667
6.17028e-05,3.95306
6.26938e-05,3.92968
6.36862e-05,4.06457
6.4667e-05,4.04334
6.56899e-05,4.14307
6.66876e-05,4.25103
6.76894e-05,4.27428
6.86966e-05,4.33648
6.96896e-05,4.43079
7.06835e-05,4.44802
7.16949e-05,4.57928
7.26968e-05,4.61337
7.37182e-05,4.69379
7.47022e-05,4.71928
7.56979e-05,4.83351
7.67004e-05,4.81598
7.76621e-05,5.13809
7.86842e-05,4.99273
7.97101e-05,5.04689
8.06885e-05,5.11088
8.1682e-05,5.13226
8.26818e-05,5.29544
8.3661e-05,5.3048
8.46876e-05,5.48578
8.56719e-05,5.42855
8.66877e-05,5.58436
8.7675e-05,5.62178
8.86811e-05,5.69535
8.96826e-05,5.72763
9.06923e-05,5.74137
9.16859e-05,5.94171
9.26938e-05,5.91889
9.3678e-05,5.91837
9.46998e-05,6.01161
9.5691e-05,6.14413
9.6682e-05,6.24642
9.76888e-05,6.34419
9.8709e-05,6.36868
9.96809e-05,6.33766
0.000100683,6.44409
0.000101685,6.46117
0.000102682,6.56486
0.000103676,6.65942
0.000104681,6.76237
0.000105685,6.76036
0.000106669,6.83438
0.000107668,6.97875
0.000108669,7.01635
0.000109668,7.10247
0.000110675,7.12148
0.000111704,7.16522
0.000112678,7.30677
0.000113664,7.54822
0.00011468,7.48359
0.000115675,7.46566
0.000116678,7.60727
0.000117683,7.68006
0.000118691,7.59535
0.000119701,7.84177
0.000120686,7.76135
0.000121685,8.1268
0.000122682,8.0278
0.000123686,8.01862
0.000124669,8.15554
0.000125671,8.16036
0.000126666,8.27831
0.000127675,8.24308
0.00012868,8.43806
0.000129685,8.43156
0.000130664,8.44916
0.00013167,8.51082
0.000132666,8.73004
0.000133664,8.70299
0.000134664,8.70986
0.000135672,8.81385
0.00013668,8.7869
0.000137665,8.85166
0.000138673,9.08175
0.000139701,9.16321
0.000140676,9.13669
0.000141696,9.2691
0.000142745,9.39318
0.000143722,9.35411
0.000144686,9.49695
0.000145672,9.55709
0.000146682,9.62804
0.000147713,9.67115
0.000148696,9.76611
0.000149665,9.89843
0.000150644,9.87943
0.000151671,9.96507
0.000152664,10.0752
0.000153708,10.2496
0.000154731,10.2005
0.000155716,10.0972
0.000156677,10.2372
0.000157662,10.3911
0.000158658,10.3006
0.000159684,10.5118
0.000160676,10.7328
0.000161711,10.7424
0.000162672,10.6858
0.000163672,10.709
0.000164667,10.8032
0.000165655,10.9007
0.00016672,10.8967
0.000167698,11.1059
0.000168693,11.2489
0.000169665,11.2764
0.000170698,11.3401
0.000171712,11.2751
0.00017272,11.3807
0.000173707,11.5368
0.000174732,11.5031
0.000175715,11.6509
0.000176689,11.776
0.000177656,11.8802
0.000178717,11.8686
0.000179724,11.9271
0.000180697,12.0122
0.000181689,12.0537
0.000182659,12.2004
0.00018369,12.1049
0.000184728,12.2123
0.000185724,12.5054
0.000186747,12.5379
0.000187717,12.5869
0.000188669,12.6104
0.000189661,12.7755
0.000190735,12.9165
0.000191732,12.8737
0.000192726,12.9645
0.000193723,13.0077
0.000194707,13.2699
0.000195672,13.3003
0.000196741,13.3401
0.00019771,13.4233
0.000198712,13.5339
0.000199689,13.565
0.000200669,13.678
0.000201705,13.7018
0.000202704,13.7629
0.000203716,13.9267
0.000204714,14.1788
0.000205702,14.1112
0.000206694,14.2023
0.000207653,14.2922
0.000208711,14.3652
0.000209721,14.4284
0.000210703,14.6516
0.000211729,14.6853
0.000212674,14.7579
0.000213715,14.9242
0.000214743,14.9836
0.00021572,15.2285
0.000216706,15.2052
0.000217695,15.2654
0.000218693,15.3729
0.000219708,15.6019
0.00022065,15.5411
0.000221698,15.6301
0.000222713,15.8021
0.000223709,15.8236
0.00022473,15.904
0.000225686,16.1091
0.000226654,16.2105
0.000227707,16.1778
0.000228703,16.3416
0.000229712,16.4835
0.000230707,16.5029
0.00023169,16.6079
0.000232733,16.7011
0.000233687,16.843
0.000234717,16.9231
0.000235708,17.0422
0.00023671,17.2241
0.000237714,17.2602
0.000238711,17.3017
0.000239714,17.3122
0.000240711,17.5632
0.000241709,17.5768
0.000242726,17.7191
0.00024371,17.7755
0.00024469,17.9954
0.000245701,18.0267
0.000246707,18.1474
0.000247706,18.2676
0.000248693,18.2793
0.000249717,18.4381
0.000250687,18.4558
0.000251695,18.5756
0.0002527,18.6498
0.000253702,18.7846
0.000254726,18.9768
0.0002557,19.076
0.000256659,19.2017
0.000257699,19.1936
0.000258715,19.4195
0.00025971,19.4289
0.000260728,19.5993
0.000261711,19.7694
0.00026272,19.8092
0.000263702,19.9265
0.000264725,20.05
0.000265734,20.119
0.000266689,20.2956
0.000267704,20.2894
0.00026869,20.3586
0.0002697,20.7409
0.000270714,20.7583
0.000271699,20.8554
0.000272694,20.9813
0.000273675,21.0547
0.000274693,21.212
0.000275688,21.2243
0.000276691,21.4064
0.000277697,21.4238
0.0002787,21.5208
0.000279712,21.7743
0.0002807,21.8117
0.000281676,21.9966
0.00028272,22.0661
0.000283705,22.2124
0.000284712,22.3808
0.000285706,22.428
0.000286703,22.6347
0.000287704,22.713
0.000288719,22.8843
0.000289697,23.0869
0.000290716,23.1996
0.000291712,23.3008
0.000292708,23.388
0.000293686,23.4618
0.00029468,23.575
0.000295683,23.7246
0.00029668,23.8275
0.000297688,23.9565
0.000298678,24.0405
0.000299678,24.2755
0.000300688,24.2025
0.000301685,24.3303
0.00030269,24.3782
0.000303704,24.3859
0.000304691,24.5729
0.000305695,24.6704
0.000306711,24.647
0.000307698,24.8275
0.000308703,24.9055
0.000309711,24.9954
0.000310717,25.1331
0.000311705,25.2162
0.000312697,25.3801
0.000313696,25.4526
0.000314689,25.4881
0.000315701,25.693
0.0003167,25.8704
0.000317683,25.9492
0.000318691,26.1055
0.000319683,26.146
0.000320681,26.282
0.000321693,26.4109
0.000322689,26.5563
0.00032369,26.6361
0.000324692,26.7875
0.000325691,26.831
0.000326701,26.9545
0.000327693,27.1685
0.000328697,27.2309
0.0003297,27.3108
0.000330676,27.4918
0.000331695,27.7409
0.000332709,27.7433
0.000333712,27.9173
0.000334699,27.9162
0.000335693,28.0895
0.000336703,28.2708
0.000337673,28.3593
0.000338689,28.4628
0.000339698,28.6001
0.000340684,28.8581
0.000341675,28.8184
0.000342662,28.9515
0.000343679,29.1056
0.000344667,29.166
0.000345674,29.3238
0.000346695,29.4678
0.000347674,29.5431
0.000348674,29.6569
0.000349682,29.8036
0.000350687,29.8726
0.000351683,30.0067
0.000352685,30.1809
0.000353684,30.2468
0.000354705,30.4661
0.000355696,30.558
0.000356656,30.6706
0.000357683,30.7718
0.000358691,30.8032
0.000359679,30.9203
0.000360677,31.0382
0.000361693,31.1338
0.000362673,31.2701
0.000363682,31.4265
0.000364703,31.517
0.000365678,31.5579
0.0003667,31.617
0.000367668,31.7016
0.000368687,31.7894
0.000369667,31.9331
0.000370693,32.0224
0.000371677,32.0517
0.000372702,32.1963
0.000373674,32.3877
0.000374687,32.4454
0.000375681,32.5225
0.000376678,32.5749
0.000377687,32.7515
0.000378703,32.8182
0.000379682,32.9794
0.000380666,33.042
0.000381681,33.1414
0.0003827,33.2612
0.000383687,33.3849
0.000384704,33.5139
0.000385678,33.5648
0.00038668,33.7286
0.000387677,33.776
0.000388677,33.9717
0.000389671,34.0404
0.000390679,34.2981
0.000391659,34.3663
0.00039267,34.4815
0.000393669,34.5389
0.000394669,34.7243
0.00039567,34.7948
0.000396655,34.8861
0.000397671,35.0229
0.000398665,35.1694
0.000399663,35.1903
0.000400661,35.411
0.000401662,35.4935
0.000402667,35.6804
0.000403681,35.7968
0.000404695,35.8422
0.000405674,35.969
0.000406668,36.1493
0.000407674,36.2093
0.000408682,36.3112
0.000409707,36.3667
0.000410658,36.586
0.000411673,36.5966
0.000412681,36.8239
0.000413671,36.8443
0.000414683,36.9737
0.00041567,37.0969
0.000416665,37.1907
0.000417655,37.3507
0.000418642,37.4773
0.000419663,37.5001
0.000420682,37.7032
0.000421668,37.7793
0.000422669,37.8937
0.00042367,37.9764
0.000424677,38.0317
0.000425668,38.1116
0.000426695,38.1897
0.000427674,38.3263
0.000428671,38.5297
0.000429669,38.6287
0.000430669,38.7033
0.000431688,38.7494
0.00043269,38.8605
0.000433695,39.0269
0.000434684,39.1272
0.000435655,39.1988
0.000436652,39.3826
0.000437657,39.4517
0.000438655,39.483
0.000439657,39.6777
0.00044065,39.7426
0.000441658,39.8761
0.000442644,39.9761
0.000443657,40.02
0.000444659,40.2093
0.000445659,40.2788
0.000446683,40.3439
0.000447662,40.6268
0.000448641,40.6207
0.000449663,40.736
0.000450659,40.9324
0.000451683,41.0369
0.000452647,41.0346
0.000453672,41.1679
0.00045467,41.21
0.000455659,41.4449
0.000456682,41.555
0.000457666,41.5988
0.000458652,41.7584
0.000459642,41.7765
0.000460656,41.8523
0.000461649,41.88
0.000462662,42.1676
0.000463652,42.3135
0.000464646,42.3724
0.000465656,42.3204
0.00046665,42.4022
0.000467645,42.6727
0.000468661,42.7442
0.000469677,42.7798
0.000470675,42.8347
0.000471664,42.9649
0.000472641,43.0732
0.000473671,43.1484
0.000474687,43.1758
0.000475678,43.3277
0.000476656,43.5033
0.000477684,43.5096
0.000478658,43.4891
0.00047967,43.5788
0.000480677,43.6242
0.000481656,43.7119
0.000482661,43.8018
0.000483658,43.8246
0.000484634,43.9584
0.000485651,43.9579
0.000486652,44.1327
0.000487653,44.1657
0.000488656,44.3415
0.000489659,44.3184
0.000490603,44.6065
0.00049164,44.5714
0.000492689,44.562
0.000493631,44.7167
0.000494644,44.7393
0.000495669,44.8456
0.000496644,44.938
0.000497662,44.9188
0.000498647,45.1041
0.000499681,45.2066
0.000500668,45.1388
0.000501641,45.2938
0.00050264,45.5155
0.000503662,45.6538
0.000504687,45.548
0.000505643,45.6025
0.000506645,45.8115
0.000507665,45.9299
0.000508645,45.9728
0.000509596,46.2289
0.000510638,46.2783
0.000511648,46.3019
0.000512641,46.5533
0.000513643,46.6917
0.000514597,46.7378
0.000515643,46.8159
0.000516642,46.8827
0.000517653,47.0829
0.000518654,47.3343
0.000519672,47.3351
0.000520669,47.425
0.000521669,47.5153
0.000522637,47.5314
0.000523664,47.6008
0.000524667,47.834
0.00052566,47.7922
0.000526632,48.1221
0.000527654,48.2712
0.000528645,48.3541
0.000529656,48.4433
0.000530654,48.5654
0.000531624,48.5445
0.000532665,48.5437
0.000533658,48.6485
0.000534618,48.83
0.000535621,48.8166
0.000536648,48.9056
0.000537645,49.0863
0.000538649,49.1085
0.000539618,49.4043
0.000540634,49.4385
0.000541625,49.4888
0.000542624,49.6473
0.000543637,49.6798
0.000544632,49.6978
0.000545644,49.8506
0.000546634,49.9044
0.000547653,50.0606
0.000548645,50.1102
0.000549664,50.1633
0.000550634,50.2658
0.000551657,50.405
0.000552628,50.4138
0.000553645,50.513
0.000554639,50.7172
0.000555653,50.8148
0.00055663,50.9741
0.000557627,51.1096
0.00055864,51.2233
0.000559652,51.3611
0.000560623,51.4002
0.000561642,51.4504
0.000562639,51.5297
0.000563651,51.6866
0.000564615,51.9248
0.000565644,52.0706
0.000566643,52.0997
0.000567663,52.1355
0.000568633,52.3519
0.000569667,52.2796
0.000570631,52.4555
0.000571622,52.5055
0.000572631,52.6642
0.000573676,52.7513
0.000574657,52.7546
0.000575646,52.8874
0.000576642,52.8983
0.00057766,53.054
0.000578657,53.1481
0.00057965,53.1816
0.000580625,53.2551
0.000581628,53.3726
0.000582625,53.2422
0.000583596,53.4726
0.0005846,53.808
0.000585652,53.7036
0.000586635,53.8332
0.000587645,53.969
0.000588585,54.0938
0.000589614,54.1177
0.000590632,54.1472
0.000591642,54.2515
0.000592629,54.4337
0.000593653,54.5375
0.000594646,54.6403
0.000595646,54.7336
0.000596637,54.8963
0.000597613,54.8897
0.00059863,55.0021
0.000599646,55.0773
0.000600617,55.2523
0.000601652,55.2105
0.000602626,55.4414
0.000603635,55.5441
0.000604624,55.6792
0.000605635,55.8892
0.000606638,56.0468
0.00060761,56.1118
0.0006086,56.2738
0.000609637,56.4207
0.00061062,56.4533
0.00061162,56.6245
0.000612638,56.7167
0.000613633,56.9058
0.000614616,57.0708
0.000615642,57.0864
0.000616629,57.2142
0.000617613,57.3096
0.000618603,57.4199
0.000619651,57.5399
0.000620636,57.7433
0.000621621,57.8147
0.000622629,57.9447
0.000623642,58.1411
0.000624618,58.313
0.000625639,58.3694
0.000626629,58.4992
0.000627634,58.5789
0.000628624,58.6698
0.000629616,58.7112
0.000630602,58.9811
0.000631638,59.1395
0.000632599,59.18
0.000633613,59.2891
0.000634606,59.4648
0.000635614,59.4521
0.00063661,59.6457
0.000637595,59.7892
0.000638629,59.9715
0.000639602,59.9695
0.000640618,60.1834
0.000641628,60.3405
0.000642629,60.3946
0.000643642,60.4295
0.000644614,60.6032
0.000645628,60.6415
0.000646622,60.8309
0.000647624,60.8887
0.000648633,60.8991
0.000649632,61.1384
0.000650596,61.299
0.000651607,61.3537
0.000652605,61.5034
0.000653625,61.6429
0.000654597,61.7587
0.000655572,61.7899
0.000656609,62.0416
0.000657626,62.0298
0.000658628,62.1483
0.000659615,62.3989
0.000660609,62.5325
0.000661633,62.5348
0.000662603,62.6925
0.000663585,62.757
0.00066462,62.9631
0.00066562,63.0851
0.000666637,63.2292
0.000667636,63.361
0.0006686,63.4806
0.00066963,63.6501
0.000670628,63.8064
0.000671606,64.0205
0.000672604,63.9886
0.000673629,64.0816
0.000674599,64.4199
0.000675611,64.4605
0.000676596,64.6766
0.00067759,64.8323
0.00067861,64.9482
0.0006796,65.0863
0.000680591,65.2599
0.00068162,65.4366
0.000682588,65.5515
0.00068359,65.7626
0.000684596,65.9349
0.000685607,65.9864
0.00068661,66.0935
0.000687622,66.2574
0.000688613,66.4198
0.000689631,66.6415
0.000690608,66.7308
0.000691618,66.682
0.00069261,66.9571
0.000693623,66.9555
0.000694598,67.0738
0.000695616,67.0484
0.000696596,67.3722
0.000697583,67.4395
0.000698598,67.6055
0.000699595,67.6793
0.000700589,67.7888
0.000701614,67.8819
0.000702589,68.0838
0.000703593,68.1864
0.00070461,68.2924
0.000705591,68.4239
0.000706619,68.5238
0.000707613,68.6225
0.000708631,68.801
0.000709605,69.0081
0.000710614,69.1352
0.000711589,69.225
0.000712537,69.3639
0.000713614,69.5502
0.00071462,69.711
0.000715624,69.8112
0.000716593,69.873
0.000717567,70.0621
0.000718622,70.2801
0.000719622,70.3011
0.00072061,70.4305
0.000721583,70.5525
0.000722604,70.6861
0.000723621,70.8423
0.000724561,71.0004
0.000725601,71.1123
0.000726605,71.2056
0.000727594,71.4762
0.000728575,71.4505
0.000729595,71.7282
0.000730605,71.8252
0.000731589,71.9009
0.000732593,72.1123
0.00073359,72.2373
0.000734595,72.3144
0.000735571,72.605
0.000736623,72.6843
0.000737609,72.7955
0.000738616,72.922
0.000739604,72.9746
0.000740606,73.1452
0.000741624,73.3041
0.000742597,73.4052
0.000743588,73.5403
0.000744612,73.6411
0.000745619,73.8347
0.000746588,73.9519
0.00074759,74.0078
0.000748568,74.1905
0.000749608,74.3099
0.000750542,74.4764
0.000751596,74.666
0.000752581,74.6483
0.000753592,74.7761
0.000754598,74.9498
0.000755613,75.1392
0.000756588,75.1653
0.00075762,75.3047
0.000758587,75.5048
0.000759605,75.4947
0.000760597,75.54
0.000761551,75.731
0.000762607,75.9915
0.00076362,75.9754
0.000764603,76.0997
0.000765589,76.2236
0.000766565,76.3946
0.000767534,76.5245
0.00076858,76.6191
0.000769604,76.7432
0.000770585,76.8912
0.000771601,76.9894
0.000772577,77.0356
0.000773576,77.1999
0.000774592,77.3483
0.000775591,77.3746
0.000776564,77.6326
0.000777569,77.7412
0.000778573,77.6526
0.000779588,77.8344
0.000780542,77.9798
0.000781559,78.1064
0.000782601,78.3377
0.000783575,78.3863
0.000784578,78.5275
0.000785548,78.6143
0.000786594,78.7381
0.000787618,78.8528
0.000788601,79.0226
0.000789554,79.1203
0.000790588,79.2343
0.000791593,79.3318
0.000792536,79.5212
0.000793548,79.6487
0.000794589,79.6071
0.000795597,79.7572
0.000796547,79.7106
0.000797558,79.8324
0.000798524,80.0582
0.000799578,80.2168
0.000800593,80.2758
0.000801562,80.3926
0.000802577,80.5118
0.000803592,80.6722
0.000804596,80.6558
0.000805548,80.7928
0.000806571,80.9105
0.00080756,80.929
0.000808576,81.1868
0.000809594,81.1822
0.000810549,81.2111
0.000811561,81.3881
0.00081257,81.5042
0.000813559,81.7055
0.00081458,81.683
0.000815559,81.7831
0.000816526,81.8958
0.000817533,81.9995
0.000818553,82.1234
0.00081957,82.182
0.000820573,82.3287
0.000821555,82.4034
0.000822563,82.5327
0.000823515,82.6308
0.000824538,82.7117
0.000825541,82.8988
0.000826518,82.9369
0.000827544,83.0511
0.00082855,83.2007
0.000829549,83.1776
0.00083053,83.4408
0.000831537,83.6213
0.000832576,83.4719
0.000833535,83.6187
0.000834544,83.7127
0.000835529,83.7195
0.000836489,83.8701
0.000837566,83.9363
0.000838548,84.0963
0.000839527,84.2176
0.000840519,84.3146
0.000841525,84.3381
0.000842542,84.339
0.00084352,84.5955
0.000844504,84.5546
0.00084551,84.8367
0.000846516,84.7299
0.000847513,84.887
0.000848531,84.9516
0.00084953,85.1144
0.000850499,85.2125
0.000851525,85.4246
0.000852522,85.2885
0.000853536,85.3139
0.000854525,85.5741
0.00085554,85.5808
0.00085652,85.5688
0.000857525,85.9145
0.000858543,85.6884
0.000859517,85.9133
0.000860536,85.9888
0.000861523,86.1949
0.000862513,86.2074
0.000863518,86.1901
0.000864502,86.2509
0.000865506,86.6281
0.000866495,86.6139
0.000867504,86.6405
0.000868541,86.693
0.000869523,86.7584
0.000870497,86.859
0.000871507,86.9735
0.000872517,86.9069
0.000873535,87.0985
0.000874555,87.0349
0.000875549,87.3104
0.000876517,87.4214
0.00087752,87.5731
0.000878507,87.5747
0.000879538,87.7646
0.00088053,87.6597
0.000881523,87.7598
0.000882515,87.7731
0.000883522,87.9267
0.000884518,88.0772
0.000885506,88.0236
0.000886519,88.1501
0.000887506,88.1454
0.000888468,88.1785
0.000889506,88.4307
0.000890536,88.4335
0.000891505,88.5207
0.000892535,88.4589
0.000893512,88.6875
0.000894513,88.591
0.000895509,88.7631
0.0008965,89.1007
0.000897514,88.8804
0.000898497,88.9858
0.000899519,89.1695
0.000900514,89.1097
0.00090153,89.2759
0.000902494,89.3407
0.0009035,89.2403
0.000904565,89.3425
0.000905564,89.4089
0.000906542,89.389
0.00090751,89.4219
0.000908537,89.6452
0.000909524,89.5456
0.000910527,89.5852
0.000911524,89.7033
0.000912512,89.7582
0.000913511,89.8666
0.000914511,89.956
0.000915481,89.9772
0.000916533,90.0006
0.000917517,89.9974
0.000918512,90.0583
0.000919496,90.0138
0.000920509,90.0635
0.000921519,90.1361
0.000922517,90.1298
0.000923515,90.1429
0.000924514,90.3294
0.000925491,90.2862
0.000926497,90.3301
0.000927502,90.4878
0.000928504,90.5888
0.000929502,90.5983
0.000930487,90.771
0.000931502,90.7924
0.000932501,90.9578
0.000933503,90.9574
0.000934499,91.1192
0.000935523,91.141
0.000936515,91.2287
0.00093753,91.2865
0.000938529,91.3412
0.000939549,91.5095
0.000940547,91.5171
0.000941538,91.4026
0.000942564,91.6177
0.000943515,91.6718
0.000944534,91.8715
0.000945558,91.7263
0.000946547,91.7607
0.000947566,91.9682
0.000948553,91.9443
0.000949594,92.0161
0.000950588,92.1043
0.000951608,92.1014
0.000952594,92.1896
0.00095361,92.1786
0.000954648,92.3243
0.000955624,92.2259
0.000956607,92.3458
0.000957627,92.2507
0.000958616,92.3464
0.000959616,92.4937
0.000960625,92.5383
0.000961605,92.5256
0.000962604,92.6622
0.000963581,92.6682
0.000964597,92.7879
0.000965599,92.7797
0.000966605,92.8365
0.000967613,92.6872
0.000968604,92.9955
0.000969613,92.9564
0.000970625,93.2033
0.000971621,93.0659
0.000972626,93.267
0.000973618,93.1303
0.000974631,93.2555
0.000975622,93.2291
0.000976632,93.3246
0.000977626,93.3768
0.000978639,93.3121
0.000979631,93.4246
0.000980641,93.4326
0.000981601,93.4436
0.000982612,93.4339
0.000983608,93.5112
0.000984601,93.6119
0.000985626,93.6369
0.000986597,93.6199
0.000987604,93.6446
0.000988587,93.8054
0.00098961,93.8338
0.00099061,93.7777
0.000991606,93.8864
0.000992592,93.7949
0.000993606,93.8577
0.000994609,93.8295
0.000995621,93.8768
0.000996625,93.9473
0.00099761,94.0008
0.000998625,94.042
0.000999623,94.0849
0.00100062,94.1093
0.00100162,94.0783
0.00100262,94.0945
0.00100362,94.1573
0.00100462,94.1726
0.00100561,94.3187
0.00100662,94.1816
0.00100761,94.1751
0.00100861,94.4192
0.0010096,94.3478
0.0010106,94.327
0.0010116,94.4076
0.0010126,94.5213
0.0010136,94.5063
0.00101458,94.4943
0.00101561,94.5804
0.0010166,94.5597
0.0010176,94.4687
0.00101861,94.6918
0.00101959,94.7037
0.0010206,94.7255
0.00102161,94.6105
0.0010226,94.6201
0.00102361,94.6992
0.00102461,94.6874
0.0010256,94.7916
0.00102661,94.9288
0.00102761,94.8986
0.0010286,94.9228
0.0010296,94.8678
0.0010306,94.9709
0.0010316,94.8886
0.00103259,94.9097
0.0010336,94.9777
0.00103462,95.0359
0.0010356,94.9746
0.00103658,95.0033
0.00103761,94.9729
0.00103859,95.0722
0.00103959,94.9142
0.00104061,94.8619
0.0010416,94.866
0.00104258,94.9211
0.00104361,94.9791
0.00104461,94.9676
0.0010456,94.9518
0.0010466,95.044
0.00104762,95.1486
0.00104861,94.9701
0.0010496,95.0218
0.0010506,95.04
0.00105161,95.1198
0.00105259,95.1473
0.00105359,95.0803
0.0010546,95.0657
0.00105561,95.088
0.00105658,94.9928
0.00105759,95.0658
0.0010586,95.1617
0.00105959,95.1731
0.0010606,95.0594
0.0010616,95.0975
0.00106258,95.1486
0.00106359,95.0866
0.0010646,95.0588
0.00106562,95.1306
0.00106661,95.0883
0.00106759,95.1213
0.0010686,95.1703
0.0010696,95.1414
0.00107057,95.2254
0.0010716,95.3342
0.00107262,95.1723
0.0010736,95.2468
0.0010746,95.1139
0.0010756,95.2082
0.00107658,95.1025
0.0010776,95.1763
0.00107865,95.1724
0.00107964,95.2011
0.00108063,95.2205
0.00108164,95.2538
0.00108259,95.2624
0.00108359,95.1502
0.00108462,95.2375
0.00108559,95.2443
0.00108658,95.2596
0.00108758,95.2751
0.00108859,95.1606
0.00108961,95.2587
0.00109062,95.2136
0.00109165,95.2346
0.00109259,95.2936
0.00109359,95.1907
0.00109461,95.2626
0.0010956,95.2099
0.00109662,95.2095
0.00109764,95.2297
0.00109867,95.2232
0.00109961,95.3429
0.00110064,95.1644
0.00110163,95.1579
0.00110265,95.1866
0.00110362,95.1681
0.00110462,95.1256
0.00110564,95.2032
0.00110663,95.1186
0.00110761,95.1879
0.00110865,95.2362
0.00110963,95.1505
0.00111063,95.1577
0.00111159,95.322
0.00111261,95.0601
0.00111365,95.2026
0.00111464,95.1991
0.00111565,95.2566
0.00111665,95.1478
0.00111766,95.2755
0.00111865,95.2326
0.00111956,95.2076
0.00112062,95.241
0.00112165,95.1603
0.00112266,95.1733
0.00112366,95.1766
0.0011246,95.1625
0.00112561,95.2681
0.00112663,95.2489
0.00112764,95.172
0.00112862,95.2794
0.00112964,95.3039
0.00113061,95.2056
0.00113162,95.2149
0.00113261,95.1431
0.00113364,95.1338
0.00113463,95.169
0.00113565,95.2158
0.00113664,95.2516
0.00113762,95.1533
0.00113864,95.2509
0.00113965,95.1867
0.00114063,95.1667
0.00114166,95.1486
0.00114265,95.1252
0.00114365,95.1466
0.00114463,95.0829
0.00114566,95.0673
0.00114665,95.0556
0.00114765,95.1192
0.00114864,95.1561
0.00114958,95.0915
0.0011506,95.1398
0.00115164,94.9516
0.0011526,95.0501
0.00115362,94.9992
0.00115461,94.9955
0.00115563,95.0207
0.0011566,94.9812
0.00115763,94.9784
0.00115859,95.0293
0.00115966,95.0066
0.00116063,94.9946
0.00116161,95.0006
0.00116264,95.0444
0.00116361,94.9861
0.00116464,95.0079
0.00116565,95.0289
0.00116665,94.9677
0.00116764,94.9956
0.00116864,95.0422
0.00116962,95.033
0.00117064,94.9337
0.00117163,94.9284
0.00117263,94.894
0.00117362,94.8661
0.00117463,94.9404
0.0011756,94.9136
0.00117661,94.9202
0.00117761,94.8744
0.00117862,94.8456
0.0011796,94.8624
0.0011806,94.9828
0.0011816,94.8181
0.00118261,94.7595
0.00118363,94.9054
0.0011846,94.8606
0.00118562,94.7645
0.00118658,94.8427
0.00118763,94.8123
0.00118864,94.7599
0.00118963,94.7774
0.0011906,94.7735
0.00119164,94.7675
0.0011926,94.729
0.00119356,94.7598
0.00119462,94.6541
0.00119563,94.6522
0.00119663,94.7174
0.00119765,94.6686
0.00119861,94.5996
0.0011996,94.6416
0.00120062,94.598
0.00120162,94.6213
0.0012026,94.5781
0.00120363,94.516
0.00120462,94.4554
0.00120562,94.4722
0.00120658,94.4696
0.00120764,94.4926
0.0012086,94.4471
0.00120961,94.3749
0.00121062,94.3674
0.00121162,94.3888
0.00121263,94.2868
0.00121362,94.3307
0.00121462,94.3254
0.00121564,94.3347
0.0012166,94.2233
0.00121758,94.154
0.00121861,94.2082
0.00121963,94.1881
0.00122062,94.214
0.00122162,94.1747
0.00122262,94.1261
0.00122363,94.1579
0.00122461,94.0904
0.00122562,93.9826
0.00122658,94.0132
0.00122762,94.0085
0.00122861,93.9819
0.00122961,93.9467
0.00123062,93.9879
0.00123161,93.9657
0.00123261,93.9964
0.00123363,93.947
0.00123462,93.941
0.00123564,93.8939
0.00123662,93.9326
0.00123762,93.8434
0.00123861,93.8125
0.00123964,93.8154
0.00124062,93.7901
0.00124163,93.743
0.0012426,93.6482
0.00124361,93.6778
0.00124461,93.528
0.00124563,93.6113
0.00124658,93.612
0.00124761,93.5994
0.00124861,93.5387
0.0012496,93.507
0.00125063,93.5133
0.00125161,93.4903
0.0012526,93.4492
0.0012536,93.4512
0.00125461,93.3815
0.00125558,93.3698
0.0012566,93.3708
0.0012576,93.3147
0.00125859,93.3645
0.00125961,93.3307
0.00126061,93.1268
0.00126161,93.2355
0.00126262,93.2652
0.00126361,93.1894
0.00126463,93.1626
0.00126565,93.0816
0.00126661,93.0915
0.00126762,93.1294
0.00126861,93.1547
0.00126961,93.0434
0.00127059,92.9958
0.00127162,93.0562
0.00127259,93.0531
0.00127359,93.0077
0.0012746,92.9722
0.00127561,93.0623
0.0012766,92.9802
0.00127763,92.9815
0.00127858,92.9963
0.00127961,92.8479
0.00128061,92.9979
0.00128161,92.8721
0.00128262,92.8974
0.00128362,92.8534
0.0012846,92.8253
0.00128561,92.8253
0.0012866,92.7685
0.00128762,92.8966
0.00128859,92.7038
0.00128961,92.6349
0.0012906,92.6587
0.00129161,92.641
0.0012926,92.6324
0.00129359,92.5557
0.0012946,92.6211
0.00129558,92.5709
0.00129659,92.5569
0.0012976,92.5143
0.00129857,92.4931
0.00129957,92.4874
0.0013006,92.5189
0.00130162,92.4791
0.00130259,92.4156
0.0013036,92.3474
0.0013046,92.3932
0.00130561,92.3576
0.0013066,92.4035
0.00130763,92.3625
0.0013086,92.2778
0.00130961,92.2925
0.00131059,92.2302
0.00131161,92.2391
0.00131259,92.1847
0.0013136,92.1311
0.00131461,92.1172
0.0013156,92.1649
0.0013166,92.1227
0.00131759,92.1421
0.00131858,92.0494
0.0013196,92.0501
0.0013206,92.0764
0.00132159,92.0044
0.00132256,92.0406
0.00132359,91.9978
0.00132457,92.0448
0.00132561,91.9817
0.00132658,91.9914
0.00132762,91.9426
0.00132859,91.9497
0.00132958,91.9161
0.0013306,91.9635
0.00133161,91.8398
0.00133261,91.7121
0.00133363,91.8064
0.00133458,91.8394
0.00133559,91.8606
0.00133659,91.8206
0.0013376,91.6775
0.00133859,91.6395
0.00133959,91.6734
0.0013406,91.6296
0.00134158,91.6586
0.00134258,91.6519
0.00134358,91.6012
0.00134458,91.4929
0.0013456,91.5245
0.00134654,91.5544
0.00134759,91.4526
0.00134857,91.4665
0.00134958,91.4955
0.0013506,91.4154
0.00135161,91.522
0.00135256,91.3836
0.00135359,91.4046
0.0013546,91.2667
0.0013556,91.2918
0.0013566,91.2901
0.00135761,91.3039
0.00135859,91.2344
0.00135961,91.2392
0.00136059,91.1952
0.00136159,91.2731
0.00136258,91.2308
0.0013636,91.1222
0.0013646,91.1856
0.00136557,91.1741
0.00136657,91.1348
0.00136758,91.0571
0.00136858,91.1059
0.00136959,91.0132
0.00137061,91.0813
0.00137158,91.0315
0.00137256,90.9882
0.0013736,90.9876
0.00137461,91.0437
0.0013756,90.9655
0.00137656,90.932
0.00137761,90.9154
0.00137858,90.8567
0.00137959,90.8641
0.00138061,90.846
0.00138159,90.776
0.0013826,90.8203
0.00138359,90.7825
0.00138457,90.8064
0.00138558,90.6547
0.00138657,90.6919
0.00138761,90.7324
0.00138856,90.7357
0.0013896,90.6865
0.00139058,90.6746
0.00139156,90.6895
0.00139258,90.6198
0.00139358,90.5824
0.00139459,90.6088
0.0013956,90.5228
0.00139656,90.4913
0.00139756,90.4439
0.00139858,90.4907
0.00139959,90.421
0.00140058,90.4481
0.00140158,90.407
0.00140256,90.4276
0.00140359,90.3561
0.00140457,90.4023
0.00140559,90.3627
0.00140661,90.2644
0.00140761,90.2037
0.00140856,90.2977
0.0014096,90.2086
0.00141057,90.1904
0.00141159,90.1974
0.00141255,90.1801
0.00141358,90.0465
0.00141458,90.0042
0.00141558,90.1026
0.00141659,89.9822
0.00141757,90.052
0.00141859,89.999
0.00141958,89.9469
0.00142056,89.8437
0.00142159,89.9756
0.00142257,89.7669
0.00142357,89.9038
0.00142458,89.769
0.00142557,89.7535
0.00142659,89.8305
0.00142756,89.7329
0.00142855,89.7404
0.0014296,89.581
0.00143058,89.5912
0.0014316,89.6043
0.00143257,89.4757
0.00143358,89.4772
0.00143457,89.4375
0.00143557,89.4132
0.00143658,89.2441
0.00143758,89.2633
0.00143857,89.1829
0.00143954,89.1015
0.00144056,89.0374
0.00144158,89.0095
0.00144257,88.8288
0.00144356,88.7039
0.00144456,88.5334
0.00144618,-1.09091
0.00144644,-0.964532
0.00144753,-1.18374
0.00144856,-1.22342
0.00144959,-1.25045
0.00145058,-1.18592
0.00145158,-1.10292
0.00145256,-1.22504
0.00145358,-1.196
0.00145458,-1.19708
0.00145556,-1.23702
0.00145658,-1.1468
0.00145758,-1.11417
0.00145857,-1.17561
0.00145959,-1.1692
0.00146057,-1.23965
0.00146157,-1.21005
0.00146256,-1.18737
0.00146354,-1.16906
0.00146458,-1.16202
0.00146555,-1.1546
0.00146656,-1.16227
0.00146757,-1.20091
0.00146859,-1.20154
0.00146958,-1.17101
0.00147055,-1.16007
0.00147156,-1.16791
0.00147257,-1.21643
0.00147359,-1.15489
0.00147459,-1.29128
0.00147557,-1.2136
0.00147657,-1.21794
0.0014776,-1.18447
0.00147857,-1.22223
0.00147957,-1.1705
0.00148057,-1.16175
0.00148156,-1.15514
0.00148258,-1.20406
0.00148355,-1.23488
0.00148455,-1.15829
0.00148554,-1.20654
0.00148657,-1.22009
0.00148754,-1.119
0.00148853,-1.16006
0.00148953,-1.21648
0.00149055,-1.16379
0.00149157,-1.18422
0.00149253,-1.22818
0.00149357,-1.1107
0.00149458,-1.17063
0.00149555,-1.23028
0.00149656,-1.2682
0.00149757,-1.14436
0.00149809,-1.15727