File: data/ReportRaw/Resin_TXT/V4_Resin/Tensile_Test_01.txt
Program Started: Tue, Jul 16, 2024	1:13:32 PM	System: µTS4
Test Notes:

User displacement limits active. Low limit -20.000E-3 m, high limit 20.000E-3 m.
User load limits active. Low limit -1.600E+3 N, high limit 1.600E+3 N.

No closed loop control sensors in this test.

Test Segments:
 1. Ramp in Drive Control, +5.00E-3m Amplitude, 10.00E-6 m/s Speed. Sampling at 20.000 Hz, Lowpass Filter Cutoff of 100.000 Hz

Specimen Thickness (m): 	1.550E-3
Specimen Width (m): 	1.910E-3
Specimen Diameter (m): 	0.000E+0
Specimen Area (m^2): 	2.960E-6
Specimen Length (m): 	5.000E-3

Test Started: Tue, Jul 16, 2024	1:37:54 PM
Time (s)	LCFS1600 (N)	LCW1600 (N)	ECATENC (m)	SpecTemp (C)	AirTemp (C)	OutletTemp (C)	JTemp1600 (C)	GTemp1600 (C)	CUR (A)	Ve (V)	Trigger (#)
0.0000000000E+0	0.0682859	0.00223728	-2.41821e-10	24.4964	24.4721	24.5207	32.7869	0.505608	0.0766752	10.1463	-1
0.45	1.10896	1.13523	4.05711e-06	24.4969	24.4783	24.5155	32.7857	0.506147	0.230613	10.1464	-1
0.9	1.8172	1.79008	8.59998e-06	24.4868	24.4662	24.5074	32.7856	0.505146	0.179054	10.1466	-1
1.35	2.19726	2.12295	1.30837e-05	24.5042	24.4759	24.5325	32.7869	0.505046	0.115782	10.1466	-1
1.8	2.59492	2.53311	1.75926e-05	24.503	24.4759	24.53	32.7866	0.506257	0.133594	10.1467	-1
2.25	2.87659	2.96024	2.21088e-05	24.4972	24.4665	24.528	32.7848	0.506151	0.154944	10.1462	-1
2.7	3.40181	3.38346	2.65774e-05	24.4937	24.467	24.5204	32.7882	0.505708	0.180011	10.1466	-1
3.15	3.81475	3.83696	3.11114e-05	24.4857	24.4615	24.5098	32.7874	0.506198	0.16516	10.1465	-1
3.6	4.45818	4.36027	3.5593e-05	24.5013	24.4687	24.534	32.786	0.50654	0.115815	10.1464	-1
4.05	4.95012	4.89204	4.00694e-05	24.4923	24.4552	24.5293	32.7872	0.505755	0.108442	10.1467	-1
4.5	5.52583	5.45922	4.45258e-05	24.4948	24.466	24.5237	32.7875	0.505899	0.133909	10.1465	-1
4.95	6.01522	6.02504	4.9093e-05	24.5009	24.4807	24.5212	32.7848	0.505808	0.184162	10.1469	-1
5.4	6.6016	6.66053	5.36238e-05	24.5171	24.489	24.5453	32.7873	0.506037	0.168372	10.1467	-1
5.85	7.28959	7.25257	5.80374e-05	24.4881	24.4673	24.509	32.7888	0.506132	0.155375	10.1468	-1
6.3	8.00675	7.88234	6.26019e-05	24.5038	24.4854	24.5223	32.7863	0.505396	0.124449	10.1472	-1
6.75	8.60243	8.55309	6.7071e-05	24.4913	24.4764	24.5063	32.7871	0.505152	0.169585	10.1468	-1
7.2	9.2439	9.19946	7.1599e-05	24.5061	24.4634	24.5489	32.7876	0.505626	0.269899	10.1462	-1
7.65	9.96401	9.8845	7.60333e-05	24.4928	24.464	24.5216	32.7853	0.505663	0.274326	10.1469	-1
8.1	10.685	10.5801	8.0608e-05	24.507	24.4719	24.5421	32.7863	0.504546	0.264582	10.1468	-1
8.55	11.3307	11.3232	8.51168e-05	24.486	24.4647	24.5074	32.7849	0.50441	0.196959	10.1472	-1
9	12.0969	12.0825	8.96063e-05	24.4957	24.4655	24.5259	32.7874	0.505125	0.18049	10.1471	-1
9.45	12.9772	12.9092	9.40749e-05	24.4899	24.4633	24.5164	32.7861	0.504777	0.246132	10.147	-1
9.9	13.7666	13.7224	9.86146e-05	24.5012	24.4682	24.5343	32.7861	0.505745	0.222042	10.1469	-1
10.35	14.5355	14.5642	0.00010312	24.4845	24.4656	24.5033	32.7859	0.504514	0.203519	10.1466	-1
10.8	15.5116	15.4317	0.000107585	24.5035	24.4792	24.5278	32.7865	0.506205	0.156837	10.1469	-1
11.25	16.2156	16.2976	0.000112043	24.487	24.461	24.513	32.7871	0.505541	0.149737	10.147	-1
11.7	17.2029	17.1585	0.00011659	24.4967	24.4715	24.522	32.786	0.506195	0.191658	10.1471	-1
12.15	18.105	18.0819	0.000121091	24.4812	24.4588	24.5036	32.7876	0.505682	0.224661	10.1472	-1
12.6	18.9661	18.9785	0.000125519	24.5071	24.4811	24.5331	32.7869	0.5051	0.249419	10.147	-1
13.05	19.8496	19.822	0.000130107	24.4939	24.4759	24.512	32.7877	0.505435	0.190243	10.1471	-1
13.5	20.7483	20.6798	0.000134581	24.5131	24.5012	24.5249	32.7869	0.504989	0.191214	10.1474	-1
13.95	21.6903	21.5318	0.000139081	24.4758	24.4494	24.5023	32.7853	0.504579	0.212758	10.1471	-1
14.4	22.4848	22.4552	0.000143566	24.4849	24.4629	24.507	32.7869	0.505132	0.230766	10.1472	-1
14.85	23.331	23.3834	0.000148086	24.49	24.4621	24.518	32.7864	0.504738	0.239602	10.1468	-1
15.3	24.2365	24.1905	0.000152608	24.4861	24.459	24.5133	32.7856	0.505679	0.187823	10.1475	-1
15.75	25.0743	25.1084	0.000157087	24.4977	24.477	24.5183	32.7869	0.504443	0.175583	10.1474	-1
16.2	25.9673	25.9401	0.000161501	24.4898	24.463	24.5166	32.7886	0.504156	0.232705	10.1476	-1
16.65	26.9235	26.8928	0.000166084	24.498	24.4817	24.5142	32.7858	0.505742	0.289629	10.1473	-1
17.1	27.7813	27.6829	0.000170591	24.4966	24.4764	24.5168	32.7876	0.505044	0.314192	10.1473	-1
17.55	28.6048	28.4926	0.000175086	24.4917	24.4631	24.5203	32.7883	0.503663	0.280361	10.1475	-1
18	29.2478	29.2076	0.000179582	24.488	24.4603	24.5158	32.7863	0.505276	0.243533	10.1476	-1
18.45	29.9908	Inf	0.00018408	24.4824	24.466	24.4989	32.7882	0.505003	0.249917	10.1478	-1
18.9	30.7298	Inf	0.000188578	24.4989	24.4785	24.5194	32.7866	0.50481	0.250181	10.1476	-1
19.35	31.5935	Inf	0.000193072	24.5082	24.4827	24.5336	32.7861	0.504725	0.249525	10.1474	-1
19.8	32.2932	Inf	0.000197585	24.4975	24.4812	24.5138	32.7871	0.504852	0.20902	10.1479	-1
20.25	33.0528	Inf	0.00020209	24.49	24.4634	24.5165	32.7863	0.505271	0.173476	10.1479	-1
20.7	33.74	Inf	0.000206573	24.4861	24.465	24.5073	32.7873	0.505304	0.152198	10.1479	-1
21.15	34.4604	Inf	0.000211065	24.498	24.4627	24.5333	32.7849	0.504703	0.198743	10.1481	-1
21.6	35.0666	Inf	0.000215577	24.4802	24.4444	24.516	32.7869	0.504182	0.282537	10.1479	-1
22.05	35.7049	Inf	0.000220075	24.4914	24.4678	24.515	32.7867	0.504795	0.283441	10.1483	-1
22.5	36.3439	Inf	0.000224562	24.4913	24.471	24.5116	32.7869	0.504255	0.283056	10.1481	-1
22.95	36.8647	Inf	0.000229039	24.4773	24.4499	24.5048	32.7861	0.504813	0.264646	10.148	-1
23.4	37.493	Inf	0.000233572	24.4903	24.4688	24.5117	32.7859	0.504698	0.296136	10.1477	-1
23.85	38.1933	Inf	0.000238056	24.4833	24.4572	24.5095	32.7858	0.504403	0.331224	10.1477	-1
24.3	38.8965	Inf	0.000242585	24.4889	24.4604	24.5174	32.7877	0.505126	0.34351	10.1478	-1
24.75	39.3933	Inf	0.000247089	24.4863	24.4612	24.5114	32.7877	0.505246	0.267475	10.1481	-1
25.2	40.2148	Inf	0.000251579	24.4935	24.4775	24.5095	32.7871	0.503778	0.240369	10.1481	-1
25.65	40.7806	Inf	0.00025605	24.5	24.4771	24.523	32.7873	0.504402	0.250014	10.1483	-1
26.1	41.7581	Inf	0.000260581	24.4971	24.4717	24.5226	32.7882	0.504626	0.286695	10.1482	-1
26.55	42.5125	Inf	0.000265075	24.4956	24.4771	24.514	32.7858	0.504761	0.305732	10.148	-1
27	43.4248	Inf	0.000269567	24.4831	24.4695	24.4968	32.7862	0.504199	0.30128	10.1477	-1
27.45	44.1059	Inf	0.000274065	24.4908	24.4722	24.5093	32.7867	0.504733	0.271038	10.1479	-1
27.9	44.797	Inf	0.000278589	24.4969	24.4702	24.5236	32.7871	0.504518	0.270241	10.1478	-1
28.35	45.5705	Inf	0.000283058	24.4741	24.4623	24.4858	32.7873	0.503896	0.29504	10.1478	-1
28.8	46.381	Inf	0.000287583	24.4925	24.4622	24.5227	32.7858	0.503786	0.324748	10.1484	-1
29.25	47.1106	Inf	0.000292073	24.4764	24.4429	24.5098	32.7871	0.504373	0.264954	10.1482	-1
29.7	47.7292	Inf	0.000296571	24.4854	24.463	24.5077	32.7881	0.504328	0.239009	10.1478	-1
30.15	48.4704	Inf	0.000301057	24.4879	24.4716	24.5043	32.7871	0.505065	0.242739	10.1478	-1
30.6	49.1634	Inf	0.000305554	24.5048	24.4868	24.5228	32.7876	0.504642	0.269921	10.1477	-1
31.05	50.2118	Inf	0.00031005	24.4989	24.4655	24.5324	32.7864	0.505128	0.321597	10.1482	-1
31.5	51.0487	Inf	0.000314557	24.4877	24.4631	24.5122	32.786	0.50523	0.356998	10.1479	-1
31.95	51.8651	Inf	0.000319064	24.5047	24.4792	24.5302	32.7865	0.505306	0.339519	10.1475	-1
32.4	52.8116	Inf	0.000323567	24.4922	24.4635	24.5208	32.7875	0.504218	0.316008	10.1479	-1
32.85	53.668	Inf	0.000328049	24.492	24.4592	24.5247	32.7877	0.504391	0.323828	10.1477	-1
33.3	54.4451	Inf	0.000332538	24.4799	24.4615	24.4982	32.7878	0.505262	0.394398	10.1479	-1
33.75	55.305	Inf	0.000337059	24.4866	24.4523	24.521	32.7887	0.504322	0.3941	10.1481	-1
34.2	56.0987	Inf	0.000341553	24.4878	24.4593	24.5163	32.7857	0.504952	0.339744	10.1481	-1
34.65	56.8906	Inf	0.000346069	24.4914	24.4632	24.5196	32.7876	0.504988	0.298563	10.1475	-1
35.1	57.5998	Inf	0.000350546	24.4963	24.4819	24.5108	32.7871	0.504236	0.288491	10.148	-1
35.55	58.472	Inf	0.00035504	24.4852	24.4696	24.5007	32.7866	0.504345	0.331863	10.148	-1
36	59.1131	Inf	0.0003595	24.4863	24.4525	24.52	32.7872	0.504599	0.337557	10.1476	-1
36.45	60.1573	Inf	0.000364041	24.4901	24.4617	24.5185	32.7879	0.504684	0.329695	10.1481	-1
36.9	61.1482	Inf	0.000368548	24.4914	24.4767	24.506	32.7868	0.504638	0.304163	10.1481	-1
37.35	61.9325	Inf	0.000373042	24.4955	24.4874	24.5036	32.7881	0.504826	0.295353	10.1481	-1
37.8	62.9335	Inf	0.000377549	24.4809	24.4488	24.513	32.7875	0.505456	0.32742	10.1479	-1
38.25	63.9071	Inf	0.000382051	24.4901	24.4616	24.5186	32.7874	0.505568	0.355416	10.1476	-1
38.7	64.7721	Inf	0.00038654	24.501	24.4738	24.5282	32.7885	0.504596	0.394654	10.1479	-1
39.15	65.8017	Inf	0.000391038	24.4928	24.4642	24.5214	32.788	0.50448	0.349446	10.1478	-1
39.6	66.7507	Inf	0.000395516	24.4944	24.4661	24.5227	32.787	0.504907	0.386809	10.1479	-1
40.05	67.6887	Inf	0.000400022	24.4949	24.4723	24.5175	32.7877	0.504605	0.402585	10.1478	-1
40.5	68.6554	Inf	0.000404521	24.4917	24.4589	24.5245	32.7868	0.504863	0.473743	10.1476	-1
40.95	69.7095	Inf	0.000409021	24.4866	24.465	24.5081	32.7877	0.504748	0.519876	10.1481	-1
41.4	70.7529	Inf	0.000413532	24.5039	24.4836	24.5243	32.787	0.504237	0.473139	10.1478	-1
41.85	71.6683	Inf	0.000418016	24.4895	24.4595	24.5195	32.7876	0.505151	0.478315	10.148	-1
42.3	72.5966	Inf	0.000422531	24.4766	24.4381	24.5152	32.7869	0.50442	0.487167	10.1474	-1
42.75	73.6906	Inf	0.000427011	24.4906	24.4748	24.5063	32.7869	0.505086	0.539241	10.1481	-1
43.2	74.6201	Inf	0.000431544	24.4842	24.4508	24.5176	32.7886	0.504334	0.571675	10.1478	-1
43.65	75.648	Inf	0.000436051	24.4877	24.4645	24.511	32.7879	0.504845	0.550393	10.1479	-1
44.1	76.5528	Inf	0.000440541	24.4883	24.4673	24.5093	32.7891	0.504695	0.510851	10.1477	-1
44.55	77.5846	Inf	0.000445033	24.4865	24.4563	24.5168	32.7874	0.504801	0.509867	10.1475	-1
45	78.6685	Inf	0.000449517	24.492	24.4629	24.5211	32.7875	0.505352	0.560011	10.1482	-1
45.45	79.6064	Inf	0.000453996	24.4971	24.4731	24.521	32.7885	0.504797	0.619611	10.1476	-1
45.9	80.6036	Inf	0.00045853	24.5049	24.4784	24.5314	32.7875	0.504303	0.620268	10.1474	-1
46.35	81.7368	Inf	0.000463008	24.4875	24.4569	24.518	32.7887	0.503676	0.55396	10.1479	-1
46.8	82.6946	Inf	0.000467526	24.4981	24.4722	24.524	32.7885	0.504577	0.554271	10.1478	-1
47.25	83.6536	Inf	0.000472005	24.5052	24.4859	24.5246	32.7889	0.503461	0.607503	10.1476	-1
47.7	84.5069	Inf	0.000476521	24.4851	24.4753	24.4948	32.7881	0.504505	0.669451	10.1479	-1
48.15	85.7552	Inf	0.000481032	24.4841	24.4668	24.5014	32.7875	0.504334	0.719466	10.1477	-1
48.6	86.6702	Inf	0.000485508	24.4812	24.4685	24.4938	32.7877	0.505178	0.659142	10.1472	-1
49.05	87.5976	Inf	0.000490019	24.4793	24.4516	24.5069	32.7887	0.504402	0.660099	10.1481	-1
49.5	88.7191	Inf	0.000494509	24.4967	24.4874	24.5059	32.7882	0.505149	0.661797	10.1475	-1
49.95	89.7712	Inf	0.000498996	24.476	24.452	24.4999	32.7887	0.505112	0.734353	10.1479	-1
50.4	90.7246	Inf	0.0005035	24.484	24.4589	24.5091	32.7881	0.504475	0.749996	10.1477	-1
50.85	91.7901	Inf	0.000508019	24.4866	24.4522	24.5211	32.7878	0.503875	0.720882	10.1474	-1
51.3	92.7216	Inf	0.000512524	24.4865	24.4602	24.5128	32.7881	0.504885	0.70001	10.1473	-1
51.75	93.7711	Inf	0.000517005	24.4878	24.4593	24.5162	32.7873	0.504616	0.721361	10.1476	-1
52.2	94.7429	Inf	0.000521493	24.4889	24.4568	24.521	32.788	0.505181	0.753091	10.1473	-1
52.65	95.7371	Inf	0.000526002	24.499	24.4692	24.5287	32.7876	0.505177	0.733203	10.1476	-1
53.1	96.8086	Inf	0.000530506	24.4877	24.4603	24.515	32.7876	0.504816	0.718563	10.1473	-1
53.55	97.7534	Inf	0.000535016	24.4904	24.4673	24.5134	32.788	0.504012	0.659095	10.1474	-1
54	98.7589	Inf	0.000539495	24.4954	24.4726	24.5183	32.7881	0.504202	0.68033	10.1474	-1
54.45	99.7171	Inf	0.000543976	24.502	24.4687	24.5354	32.7894	0.504621	0.746861	10.1476	-1
54.9	100.791	Inf	0.000548493	24.5013	24.472	24.5306	32.7895	0.504905	0.815202	10.1478	-1
55.35	101.864	Inf	0.00055303	24.4812	24.4585	24.504	32.7891	0.504681	0.77482	10.1475	-1
55.8	102.723	Inf	0.00055749	24.4996	24.4767	24.5225	32.7883	0.504652	0.726954	10.1477	-1
56.25	103.859	Inf	0.00056199	24.4801	24.4518	24.5083	32.7881	0.504545	0.706348	10.1475	-1
56.7	104.896	Inf	0.000566488	24.494	24.4739	24.5142	32.7886	0.504854	0.717637	10.1477	-1
57.15	105.856	Inf	0.000570999	24.477	24.4515	24.5025	32.7903	0.505044	0.789388	10.1475	-1
57.6	106.766	Inf	0.00057548	24.4837	24.4625	24.5048	32.7893	0.505141	0.852432	10.1475	-1
58.05	107.773	Inf	0.000579979	24.5009	24.4722	24.5296	32.7898	0.504697	0.823435	10.1473	-1
58.5	108.965	Inf	0.000584483	24.4863	24.4628	24.5098	32.7883	0.505321	0.762076	10.1478	-1
58.95	109.867	Inf	0.000588992	24.4884	24.4493	24.5275	32.7884	0.505051	0.748205	10.1477	-1
59.4	110.925	Inf	0.000593477	24.4888	24.4706	24.5069	32.7878	0.504965	0.792633	10.1476	-1
59.85	111.985	Inf	0.000597985	24.5006	24.475	24.5262	32.7879	0.5033	0.830714	10.1477	-1
60.3	112.873	Inf	0.000602487	24.4873	24.4609	24.5137	32.7902	0.505121	0.800561	10.1472	-1
60.75	113.939	Inf	0.000606991	24.4873	24.4568	24.5179	32.7903	0.504556	0.771544	10.1472	-1
61.2	114.939	Inf	0.000611436	24.4987	24.4703	24.5272	32.7898	0.504005	0.795287	10.1479	-1
61.65	116.018	Inf	0.000615994	24.4925	24.4744	24.5107	32.7875	0.504775	0.753802	10.1474	-1
62.1	116.841	Inf	0.000620483	24.4944	24.4647	24.5241	32.7903	0.504672	0.773037	10.1475	-1
62.55	117.862	Inf	0.000624983	24.51	24.4718	24.5482	32.7887	0.505089	0.76603	10.1475	-1
63	118.821	Inf	0.000629476	24.4861	24.4565	24.5157	32.7886	0.504293	0.787439	10.1477	-1
63.45	119.798	Inf	0.000633959	24.498	24.4707	24.5252	32.7895	0.504192	0.760253	10.1476	-1
63.9	120.687	Inf	0.00063848	24.4862	24.4707	24.5017	32.7899	0.50463	0.827094	10.1472	-1
64.35	121.758	Inf	0.000642961	24.515	24.4926	24.5374	32.7887	0.50415	0.867242	10.1475	-1
64.8	122.728	Inf	0.000647447	24.4952	24.4666	24.5238	32.7905	0.504901	0.912068	10.1468	-1
65.25	123.701	Inf	0.000651987	24.4995	24.4693	24.5297	32.7875	0.504614	0.868564	10.1473	-1
65.7	124.539	Inf	0.000656446	24.4871	24.4616	24.5126	32.7882	0.504748	0.82398	10.1476	-1
66.15	125.462	Inf	0.000660967	24.4972	24.4678	24.5265	32.7894	0.504096	0.806836	10.1473	-1
66.6	126.45	Inf	0.000665467	24.492	24.4618	24.5222	32.7872	0.5048	0.876636	10.1474	-1
67.05	127.411	Inf	0.000669999	24.4821	24.4603	24.5039	32.7887	0.504809	0.899419	10.1469	-1
67.5	128.324	Inf	0.000674476	24.4867	24.4559	24.5174	32.7892	0.503991	0.855099	10.1473	-1
67.95	129.326	Inf	0.000678961	24.5009	24.4547	24.5472	32.7871	0.504616	0.811446	10.1476	-1
68.4	130.206	Inf	0.000683466	24.4939	24.4706	24.5172	32.7894	0.505178	0.791288	10.1472	-1
68.85	131.069	Inf	0.00068796	24.4908	24.4683	24.5134	32.7883	0.505086	0.848619	10.1477	-1
69.3	131.983	Inf	0.000692467	24.5019	24.474	24.5298	32.7894	0.504412	0.865157	10.1478	-1
69.75	132.818	Inf	0.000696991	24.4944	24.4754	24.5135	32.7896	0.504779	0.851125	10.1473	-1
70.2	133.703	Inf	0.000701424	24.4972	24.4631	24.5314	32.7895	0.504645	0.767463	10.1478	-1
70.65	134.557	Inf	0.0007059	24.4883	24.4646	24.512	32.7893	0.504844	0.782691	10.1481	-1
71.1	135.538	Inf	0.000710414	24.4992	24.4704	24.5279	32.7892	0.504923	0.841724	10.1475	-1
71.55	136.33	Inf	0.00071492	24.4756	24.456	24.4952	32.7902	0.504363	0.85585	10.148	-1
72	137.194	Inf	0.000719411	24.4979	24.4586	24.5372	32.7904	0.504936	0.8113	10.1478	-1
72.45	138.12	Inf	0.000723922	24.4895	24.4675	24.5114	32.7902	0.504558	0.744914	10.1475	-1
72.9	138.754	Inf	0.000728413	24.4927	24.4649	24.5204	32.7896	0.50495	0.678962	10.1474	-1
73.35	139.603	Inf	0.00073289	24.5007	24.4822	24.5193	32.7888	0.504353	0.734753	10.1475	-1
73.8	140.399	Inf	0.000737395	24.4885	24.4628	24.5143	32.7888	0.505169	0.813021	10.1478	-1
74.25	141.259	Inf	0.000741898	24.4958	24.463	24.5287	32.7889	0.504678	0.825456	10.1476	-1
74.7	141.999	Inf	0.000746397	24.4777	24.4501	24.5052	32.7893	0.504264	0.772961	10.1476	-1
75.15	142.874	Inf	0.000750906	24.4864	24.4552	24.5176	32.7913	0.504704	0.776589	10.1477	-1
75.6	143.575	Inf	0.000755393	24.5063	24.4835	24.5292	32.7895	0.503849	0.768443	10.1474	-1
76.05	144.376	Inf	0.000759882	24.4904	24.4622	24.5185	32.7887	0.503897	0.830831	10.1476	-1
76.5	145.147	Inf	0.000764424	24.4907	24.4655	24.516	32.7887	0.504407	0.884173	10.1476	-1
76.95	145.891	Inf	0.000768922	24.4884	24.4648	24.512	32.7904	0.504374	0.850701	10.1477	-1
77.4	146.713	Inf	0.000773388	24.4895	24.4605	24.5185	32.7887	0.504397	0.838312	10.1474	-1
77.85	147.484	Inf	0.000777885	24.4991	24.4842	24.514	32.7891	0.504529	0.817506	10.1475	-1
78.3	148.206	Inf	0.000782378	24.4968	24.4797	24.5139	32.7889	0.504156	0.84535	10.1475	-1
78.75	148.98	Inf	0.000786889	24.4935	24.4796	24.5074	32.7892	0.504764	0.91287	10.1479	-1
79.2	149.533	Inf	0.000791406	24.4843	24.461	24.5075	32.7903	0.504415	0.858389	10.1477	-1
79.65	150.392	Inf	0.000795907	24.4795	24.4606	24.4983	32.7885	0.505037	0.826777	10.1475	-1
80.1	150.988	Inf	0.00080039	24.4979	24.4624	24.5335	32.7888	0.504016	0.799434	10.1476	-1
80.55	151.706	Inf	0.000804867	24.489	24.4581	24.52	32.7894	0.505269	0.836311	10.1477	-1
81	152.347	Inf	0.000809384	24.5056	24.4726	24.5385	32.7899	0.503967	0.866571	10.148	-1
81.45	153.024	Inf	0.000813869	24.4906	24.4634	24.5178	32.7895	0.504791	0.873996	10.1477	-1
81.9	153.682	Inf	0.000818411	24.4955	24.462	24.5289	32.7893	0.50433	0.838918	10.1478	-1
82.35	154.352	Inf	0.000822881	24.4875	24.4626	24.5123	32.7898	0.505071	0.813079	10.1476	-1
82.8	154.982	Inf	0.000827376	24.4857	24.4637	24.5077	32.7902	0.503906	0.864423	10.148	-1
83.25	155.623	Inf	0.000831889	24.5066	24.4825	24.5307	32.7896	0.504902	0.968805	10.1479	-1
83.7	156.188	Inf	0.000836378	24.4856	24.4627	24.5086	32.7908	0.50469	1.01159	10.148	-1
84.15	156.848	Inf	0.000840903	24.4957	24.4666	24.5249	32.7902	0.50523	0.997481	10.1478	-1
84.6	157.353	Inf	0.000845383	24.5009	24.4745	24.5274	32.7901	0.50526	0.94641	10.148	-1
85.05	157.976	Inf	0.000849883	24.4947	24.4687	24.5208	32.7896	0.504692	0.944223	10.1477	-1
85.5	158.443	Inf	0.000854372	24.4984	24.4848	24.512	32.79	0.504433	0.952785	10.1474	-1
85.95	159.085	Inf	0.000858854	24.4903	24.4581	24.5225	32.7898	0.505101	0.958416	10.1477	-1
86.4	159.532	Inf	0.000863382	24.49	24.4694	24.5107	32.7906	0.504082	0.938248	10.1477	-1
86.85	160.002	Inf	0.000867868	24.4982	24.4791	24.5174	32.7905	0.504189	0.916647	10.1479	-1
87.3	160.57	Inf	0.000872389	24.5019	24.4785	24.5254	32.7898	0.504493	0.889942	10.1477	-1
87.75	160.996	Inf	0.000876851	24.4811	24.4562	24.5059	32.79	0.504324	0.925361	10.1478	-1
88.2	161.528	Inf	0.000881355	24.4961	24.4718	24.5203	32.789	0.505182	0.998649	10.1477	-1
88.65	161.914	Inf	0.000885878	24.4939	24.4722	24.5155	32.79	0.504194	1.04488	10.1479	-1
89.1	162.521	Inf	0.000890389	24.4888	24.4685	24.5092	32.7898	0.505265	1.00638	10.1477	-1
89.55	162.849	Inf	0.000894845	24.4955	24.4788	24.5123	32.7896	0.504921	1.02014	10.1476	-1
90	163.271	Inf	0.000899345	24.4967	24.4644	24.5289	32.79	0.503941	1.05236	10.1479	-1
90.45	163.703	Inf	0.000903861	24.4977	24.4716	24.5237	32.7911	0.505565	1.07454	10.1481	-1
90.9	164.056	Inf	0.000908361	24.4938	24.4644	24.5232	32.79	0.504617	1.08091	10.1479	-1
91.35	164.476	Inf	0.000912864	24.4974	24.4704	24.5244	32.7895	0.50471	1.05462	10.1477	-1
91.8	164.851	Inf	0.000917406	24.4854	24.4573	24.5134	32.7901	0.504137	1.0237	10.1474	-1
92.25	165.21	Inf	0.000921844	24.4853	24.4667	24.504	32.7888	0.504183	1.02076	10.1479	-1
92.7	165.591	Inf	0.00092635	24.5032	24.4692	24.5372	32.7899	0.504186	1.06676	10.1475	-1
93.15	165.944	Inf	0.000930849	24.499	24.4748	24.5232	32.7906	0.504372	1.06384	10.1476	-1
93.6	166.258	Inf	0.000935412	24.5028	24.4709	24.5348	32.792	0.504743	1.0596	10.1477	-1
94.05	166.602	Inf	0.000939866	24.4967	24.4708	24.5227	32.7904	0.505847	1.03565	10.148	-1
94.5	166.925	Inf	0.000944408	24.4936	24.4731	24.5141	32.7901	0.504167	1.02782	10.1474	-1
94.95	167.189	Inf	0.000948905	24.4895	24.4699	24.5092	32.7894	0.504557	1.0585	10.1474	-1
95.4	167.406	Inf	0.000953397	24.4933	24.4714	24.5152	32.7912	0.50477	1.09066	10.1473	-1
95.85	167.727	Inf	0.000957855	24.5006	24.4755	24.5257	32.791	0.503884	1.05453	10.1479	-1
96.3	167.817	Inf	0.00096237	24.5104	24.4907	24.5302	32.791	0.505273	1.05296	10.1476	-1
96.75	168.247	Inf	0.000966899	24.5036	24.4781	24.5291	32.791	0.504271	1.02409	10.1481	-1
97.2	168.452	Inf	0.000971405	24.502	24.4747	24.5294	32.7922	0.504546	1.06296	10.1485	-1
97.65	168.601	Inf	0.000975872	24.5048	24.4782	24.5313	32.7896	0.50582	1.13759	10.1479	-1
98.1	168.744	Inf	0.000980405	24.5007	24.4762	24.5252	32.7917	0.503727	1.20445	10.1475	-1
98.55	169.028	Inf	0.00098493	24.4982	24.4864	24.51	32.7895	0.504447	1.15619	10.1477	-1
99	169.1	Inf	0.000989403	24.5106	24.4719	24.5494	32.7906	0.505285	1.1255	10.1473	-1
99.45	169.409	Inf	0.000993866	24.4959	24.4761	24.5157	32.7898	0.504257	1.13781	10.1475	-1
99.9	169.558	Inf	0.000998408	24.4904	24.4753	24.5055	32.7903	0.505647	1.16135	10.1477	-1
100.35	169.687	Inf	0.00100293	24.4937	24.4836	24.5038	32.7886	0.504632	1.19747	10.1478	-1
100.8	169.748	Inf	0.00100743	24.4917	24.4666	24.5168	32.7919	0.503822	1.12131	10.1476	-1
101.25	169.924	Inf	0.00101185	24.4935	24.4726	24.5143	32.7909	0.504858	1.10352	10.1472	-1
101.7	169.995	Inf	0.00101643	24.5087	24.4718	24.5457	32.7917	0.504503	1.06349	10.1475	-1
102.15	170.31	Inf	0.00102088	24.4932	24.471	24.5153	32.7909	0.504934	1.07979	10.1475	-1
102.6	170.204	Inf	0.00102534	24.5041	24.4739	24.5343	32.7906	0.505322	1.12008	10.1476	-1
103.05	170.345	Inf	0.0010299	24.4896	24.4665	24.5127	32.7915	0.504273	1.05226	10.1476	-1
103.5	170.37	Inf	0.00103443	24.4867	24.4541	24.5194	32.7901	0.504701	1.00131	10.1474	-1
103.95	170.412	Inf	0.0010389	24.5116	24.4833	24.5398	32.7888	0.504508	1.00326	10.1475	-1
104.4	170.427	Inf	0.00104337	24.5049	24.4882	24.5216	32.7919	0.503926	0.997366	10.1475	-1
104.85	170.522	Inf	0.00104786	24.5027	24.4772	24.5283	32.7906	0.504245	1.08889	10.1476	-1
105.3	170.543	Inf	0.00105241	24.4802	24.4554	24.505	32.7924	0.504167	1.08234	10.1475	-1
105.75	170.552	Inf	0.00105691	24.5124	24.4773	24.5475	32.7907	0.504587	1.05296	10.1472	-1
106.2	170.601	Inf	0.00106137	24.5084	24.488	24.5287	32.7917	0.504442	1.03524	10.1474	-1
106.65	170.629	Inf	0.00106587	24.4868	24.4648	24.5089	32.7923	0.504251	1.04373	10.1477	-1
107.1	170.503	Inf	0.0010704	24.5052	24.486	24.5243	32.7908	0.504949	1.07985	10.1474	-1
107.55	170.513	Inf	0.0010749	24.4883	24.4711	24.5054	32.7914	0.50551	1.10259	10.1478	-1
108	170.539	Inf	0.00107941	24.5032	24.4781	24.5284	32.7915	0.503913	1.07729	10.1475	-1
108.45	170.507	Inf	0.00108389	24.4969	24.4669	24.527	32.7922	0.504618	1.06194	10.1477	-1
108.9	170.454	Inf	0.0010884	24.4969	24.4743	24.5195	32.792	0.504899	1.03097	10.1476	-1
109.35	170.44	Inf	0.00109289	24.4981	24.4718	24.5243	32.7914	0.504955	1.06448	10.1477	-1
109.8	170.317	Inf	0.0010974	24.4866	24.4537	24.5195	32.7911	0.505106	1.01255	10.1475	-1
110.25	170.226	Inf	0.00110191	24.5007	24.469	24.5325	32.792	0.504426	1.04121	10.1476	-1
110.7	170.178	Inf	0.0011064	24.4981	24.4884	24.5078	32.7917	0.503773	0.995257	10.1477	-1
111.15	170.061	Inf	0.00111084	24.4917	24.4795	24.5039	32.7921	0.505614	0.962075	10.1474	-1
111.6	169.935	Inf	0.00111539	24.4915	24.4643	24.5187	32.7916	0.504361	0.998784	10.1477	-1
112.05	169.898	Inf	0.00111989	24.4888	24.4558	24.5218	32.7912	0.50488	1.04004	10.1474	-1
112.5	169.74	Inf	0.00112439	24.5071	24.4929	24.5213	32.7924	0.504541	1.04801	10.1473	-1
112.95	169.594	Inf	0.0011289	24.4942	24.4813	24.5071	32.7919	0.504623	0.974511	10.1474	-1
113.4	169.547	Inf	0.00113339	24.4895	24.4706	24.5084	32.791	0.504063	1.03113	10.1474	-1
113.85	169.28	Inf	0.00113787	24.4833	24.4646	24.5019	32.7922	0.504226	1.03004	10.1471	-1
114.3	169.253	Inf	0.00114237	24.4898	24.4683	24.5114	32.7902	0.504819	1.0899	10.1473	-1
114.75	169.225	Inf	0.00114689	24.5111	24.4829	24.5393	32.791	0.504971	1.08572	10.1474	-1
115.2	169.08	Inf	0.00115138	24.5076	24.4955	24.5198	32.79	0.505068	1.05223	10.1477	-1
115.65	168.808	Inf	0.00115587	24.5057	24.4739	24.5376	32.7909	0.505205	1.0127	10.1471	-1
116.1	168.585	Inf	0.00116036	24.4931	24.475	24.5111	32.7908	0.504561	1.04733	10.1475	-1
116.55	168.482	Inf	0.00116486	24.4882	24.4849	24.4916	32.7929	0.504656	1.12808	10.1476	-1
117	168.337	Inf	0.00116938	24.5011	24.4893	24.513	32.7931	0.504652	1.15919	10.1473	-1
117.45	168.228	Inf	0.00117389	24.4788	24.4526	24.505	32.7897	0.5048	1.08843	10.1477	-1
117.9	168.063	Inf	0.00117838	24.493	24.476	24.5099	32.7935	0.504679	1.06622	10.1475	-1
118.35	167.722	Inf	0.00118289	24.4959	24.4835	24.5083	32.7923	0.504846	1.04783	10.1469	-1
118.8	167.516	Inf	0.00118739	24.5027	24.4812	24.5241	32.791	0.504444	1.05406	10.147	-1
119.25	167.514	Inf	0.00119187	24.4918	24.4651	24.5186	32.7918	0.505333	1.08856	10.1476	-1
119.7	167.255	Inf	0.00119639	24.4845	24.4659	24.5031	32.7934	0.505502	1.05163	10.1473	-1
120.15	167.085	Inf	0.00120089	24.4907	24.4654	24.5159	32.7922	0.504452	0.981507	10.1475	-1
120.6	166.943	Inf	0.00120535	24.4925	24.4608	24.5242	32.7916	0.504583	0.968073	10.1468	-1
121.05	166.759	Inf	0.00120982	24.481	24.4565	24.5055	32.7929	0.504618	1.04147	10.147	-1
121.5	166.405	Inf	0.00121432	24.4918	24.4778	24.5058	32.7924	0.505369	1.07978	10.1476	-1
121.95	166.241	Inf	0.00121886	24.4896	24.4659	24.5133	32.7918	0.504986	1.09161	10.1474	-1
122.4	166.118	Inf	0.00122334	24.5065	24.4778	24.5352	32.7915	0.504422	1.06218	10.1475	-1
122.85	165.843	Inf	0.00122785	24.488	24.4576	24.5184	32.7915	0.50488	1.00885	10.1476	-1
123.3	165.534	Inf	0.00123237	24.5042	24.4821	24.5263	32.7936	0.504756	1.06518	10.1472	-1
123.75	165.401	Inf	0.0012369	24.4885	24.4802	24.4969	32.7929	0.505497	1.10256	10.147	-1
124.2	165.123	Inf	0.00124136	24.4997	24.4877	24.5116	32.792	0.505451	1.10318	10.1475	-1
124.65	164.936	Inf	0.00124587	24.4763	24.4585	24.4941	32.7929	0.505926	1.05667	10.1474	-1
125.1	164.714	Inf	0.00125035	24.4858	24.4837	24.4878	32.7922	0.504751	1.05959	10.1474	-1
125.55	164.659	Inf	0.00125485	24.4951	24.4666	24.5236	32.794	0.50499	1.01944	10.1474	-1
126	164.349	Inf	0.00125934	24.5	24.4761	24.5239	32.7936	0.504937	1.06268	10.1475	-1
126.45	164.037	Inf	0.00126384	24.5099	24.497	24.5228	32.7929	0.505098	1.05473	10.1471	-1
126.9	163.975	Inf	0.00126836	24.4816	24.4546	24.5086	32.7923	0.506004	1.0531	10.1473	-1
127.35	163.692	Inf	0.00127286	24.5005	24.4749	24.5262	32.7924	0.504218	1.00918	10.1477	-1
127.8	163.533	Inf	0.00127734	24.5011	24.4837	24.5186	32.791	0.505009	1.00839	10.147	-1
128.25	163.413	Inf	0.00128183	24.4959	24.4693	24.5225	32.7923	0.505175	1.03946	10.1473	-1
128.7	163.26	Inf	0.00128636	24.4816	24.4578	24.5054	32.7931	0.504729	1.05422	10.147	-1
129.15	162.937	Inf	0.00129085	24.4973	24.4783	24.5163	32.7917	0.505418	1.03894	10.147	-1
129.6	162.758	Inf	0.00129535	24.4906	24.476	24.5051	32.7941	0.505376	0.95471	10.1473	-1
130.05	162.409	Inf	0.00129983	24.4971	24.4739	24.5203	32.7927	0.50509	0.940268	10.1474	-1
130.5	162.287	Inf	0.00130434	24.4927	24.4678	24.5176	32.7931	0.504977	0.925625	10.1471	-1
130.95	162.218	Inf	0.00130885	24.4955	24.4858	24.5053	32.7919	0.50566	0.990258	10.1474	-1
131.4	161.955	Inf	0.00131334	24.4985	24.48	24.5169	32.7939	0.504396	1.04516	10.1477	-1
131.85	161.769	Inf	0.00131783	24.4998	24.4714	24.5281	32.7927	0.504559	1.01883	10.1474	-1
132.3	161.576	Inf	0.00132228	24.4892	24.4673	24.5111	32.7923	0.505559	1.0034	10.1472	-1
132.75	161.422	Inf	0.00132685	24.4967	24.4698	24.5236	32.7917	0.505986	0.979173	10.1473	-1
133.2	161.314	Inf	0.00133133	24.4848	24.4653	24.5042	32.7923	0.505138	1.05143	10.1473	-1
133.65	160.93	Inf	0.00133583	24.4915	24.4617	24.5213	32.7921	0.504903	1.04797	10.1472	-1
134.1	160.88	Inf	0.00134032	24.4946	24.4822	24.507	32.7932	0.505153	1.01107	10.1471	-1
134.55	160.725	Inf	0.00134486	24.4886	24.4699	24.5072	32.7935	0.505229	0.897973	10.1475	-1
135	160.534	Inf	0.00134934	24.4955	24.4736	24.5173	32.7918	0.504441	0.893446	10.1475	-1
135.45	160.321	Inf	0.00135382	24.484	24.4612	24.5067	32.7916	0.504478	0.926348	10.1471	-1
135.9	160.179	Inf	0.00135834	24.4957	24.4694	24.5219	32.7929	0.505318	0.981222	10.1479	-1
136.35	159.998	Inf	0.00136284	24.4978	24.4742	24.5214	32.7927	0.504376	0.972135	10.1475	-1
136.8	159.795	Inf	0.00136735	24.492	24.4716	24.5124	32.7937	0.505442	0.938504	10.1473	-1
137.25	159.723	Inf	0.00137183	24.4952	24.48	24.5104	32.7932	0.50478	0.924857	10.1474	-1
137.7	159.545	Inf	0.00137633	24.49	24.4853	24.4946	32.7926	0.504609	0.932715	10.1474	-1
138.15	159.354	Inf	0.00138082	24.5072	24.4866	24.5279	32.7933	0.505346	0.999498	10.147	-1
138.6	159.21	Inf	0.00138533	24.4844	24.4592	24.5096	32.7928	0.504896	0.999963	10.1476	-1
139.05	159.129	Inf	0.00138984	24.4962	24.4742	24.5181	32.7932	0.50498	0.96469	10.1473	-1
139.5	158.973	Inf	0.00139432	24.5002	24.4904	24.5099	32.7952	0.504369	0.927556	10.1475	-1
139.95	158.781	Inf	0.00139882	24.4922	24.472	24.5123	32.792	0.504651	1.00042	10.1475	-1
140.4	158.659	Inf	0.0014033	24.5035	24.4916	24.5153	32.7932	0.506115	1.06601	10.1471	-1
140.85	158.526	Inf	0.00140781	24.483	24.4765	24.4895	32.7916	0.504662	1.10238	10.1473	-1
141.3	158.361	Inf	0.00141233	24.4971	24.49	24.5043	32.792	0.505402	1.05065	10.1467	-1
141.75	158.297	Inf	0.00141686	24.4849	24.4674	24.5024	32.7933	0.505818	1.01071	10.1475	-1
142.2	158.019	Inf	0.00142131	24.4848	24.463	24.5065	32.7928	0.505675	0.975169	10.1474	-1
142.65	157.981	Inf	0.00142582	24.4853	24.4503	24.5204	32.793	0.504757	1.02412	10.1471	-1
143.1	157.82	Inf	0.00143032	24.4896	24.482	24.4971	32.7931	0.505915	1.06108	10.1474	-1
143.55	157.613	Inf	0.00143481	24.5038	24.4856	24.5221	32.7931	0.504387	1.03688	10.1478	-1
144	157.603	Inf	0.00143935	24.5007	24.4875	24.5139	32.7939	0.504781	0.993418	10.1469	-1
144.45	157.469	Inf	0.0014438	24.4904	24.4916	24.4892	32.7932	0.50552	0.971149	10.1474	-1
144.9	157.277	Inf	0.00144829	24.4894	24.4819	24.4968	32.7931	0.505049	1.04655	10.1474	-1
145.35	157.295	Inf	0.0014528	24.4918	24.4641	24.5195	32.7944	0.504752	1.07267	10.1469	-1
145.8	157.117	Inf	0.0014573	24.4961	24.474	24.5181	32.7926	0.505183	1.09915	10.1473	-1
146.25	157.003	Inf	0.00146184	24.4955	24.477	24.514	32.7928	0.505267	1.06624	10.147	-1
146.7	156.94	Inf	0.00146631	24.4879	24.4683	24.5076	32.7944	0.504069	1.04051	10.1476	-1
147.15	156.849	Inf	0.00147081	24.4942	24.4704	24.5179	32.7941	0.505241	1.0244	10.1477	-1
147.6	156.725	Inf	0.00147528	24.4885	24.4718	24.5051	32.793	0.505102	1.07075	10.1473	-1
148.05	156.552	Inf	0.00147981	24.4953	24.486	24.5045	32.7935	0.50506	1.07693	10.1476	-1
148.5	156.441	Inf	0.00148432	24.4941	24.4912	24.497	32.7934	0.505313	1.08095	10.1475	-1
148.95	156.316	Inf	0.00148883	24.4901	24.459	24.5212	32.7931	0.5054	1.0535	10.1475	-1
149.4	156.379	Inf	0.00149329	24.493	24.4628	24.5232	32.7922	0.505159	1.08653	10.1472	-1
149.85	156.088	Inf	0.00149778	24.4866	24.4723	24.5009	32.7928	0.505192	1.10845	10.1477	-1
150.3	156.059	Inf	0.00150229	24.5039	24.4798	24.5279	32.7925	0.50509	1.14554	10.1474	-1
150.75	155.915	Inf	0.0015068	24.5051	24.4859	24.5244	32.7929	0.505151	1.126	10.1473	-1
151.2	155.846	Inf	0.00151132	24.5052	24.4761	24.5343	32.7931	0.505763	1.06325	10.1474	-1
151.65	155.743	Inf	0.00151579	24.4973	24.4732	24.5214	32.7942	0.504883	1.04705	10.147	-1
152.1	155.611	Inf	0.00152029	24.4951	24.4842	24.5059	32.792	0.504838	1.05727	10.1475	-1
152.55	155.56	Inf	0.00152479	24.4955	24.4822	24.5087	32.7935	0.504794	1.07287	10.1473	-1
153	155.448	Inf	0.00152926	24.4853	24.4732	24.4974	32.7941	0.505318	1.06123	10.1478	-1
153.45	155.403	Inf	0.00153381	24.5097	24.4985	24.5209	32.7929	0.504861	0.980848	10.1474	-1
153.9	155.293	Inf	0.0015383	24.4877	24.4753	24.5	32.7939	0.504733	0.958248	10.1471	-1
154.35	155.161	Inf	0.00154272	24.4921	24.4616	24.5226	32.7947	0.505356	0.946039	10.1472	-1
154.8	155.032	Inf	0.00154728	24.5077	24.4807	24.5346	32.7921	0.504848	0.996098	10.1471	-1
155.25	154.999	Inf	0.0015518	24.4949	24.4673	24.5225	32.7938	0.505189	1.01098	10.1473	-1
155.7	154.889	Inf	0.0015563	24.4999	24.4814	24.5184	32.7941	0.5049	0.97729	10.1477	-1
156.15	154.755	Inf	0.0015608	24.4885	24.4709	24.5061	32.7933	0.504352	0.930386	10.1475	-1
156.6	154.626	Inf	0.00156526	24.5022	24.4864	24.5179	32.7937	0.505475	0.954529	10.1476	-1
157.05	154.611	Inf	0.0015698	24.4766	24.4692	24.484	32.794	0.505562	0.97566	10.1475	-1
157.5	154.59	Inf	0.00157427	24.4774	24.4585	24.4964	32.7935	0.504705	1.00631	10.1475	-1
157.95	154.471	Inf	0.00157879	24.5031	24.4845	24.5216	32.794	0.505394	0.946662	10.1479	-1
158.4	154.322	Inf	0.00158329	24.4969	24.4759	24.5179	32.7943	0.505624	0.909688	10.1472	-1
158.85	154.232	Inf	0.00158777	24.4875	24.4634	24.5115	32.7934	0.505656	0.879831	10.1475	-1
159.3	154.218	Inf	0.00159223	24.4799	24.4612	24.4986	32.7951	0.505787	0.901745	10.1476	-1
159.75	153.968	Inf	0.00159675	24.509	24.4882	24.5299	32.7941	0.505792	0.912178	10.1473	-1
160.2	153.994	Inf	0.00160127	24.5126	24.4898	24.5355	32.7939	0.504925	0.974718	10.1474	-1
160.65	153.942	Inf	0.00160576	24.479	24.4557	24.5024	32.7943	0.505246	0.928408	10.1474	-1
161.1	153.865	Inf	0.00161023	24.4977	24.4778	24.5175	32.7931	0.506251	0.879574	10.1471	-1
161.55	153.84	Inf	0.00161476	24.4905	24.477	24.504	32.794	0.505882	0.899183	10.1477	-1
162	153.667	Inf	0.00161922	24.5	24.4577	24.5422	32.7927	0.505116	0.921785	10.1471	-1
162.45	153.64	Inf	0.00162372	24.4865	24.4494	24.5236	32.7941	0.504129	0.906563	10.1477	-1
162.9	153.649	Inf	0.00162822	24.4953	24.475	24.5156	32.7937	0.505646	0.876292	10.1478	-1
163.35	153.435	Inf	0.00163273	24.5053	24.4747	24.5359	32.7935	0.505326	0.842957	10.1472	-1
163.8	153.414	Inf	0.00163723	24.4882	24.4657	24.5107	32.7939	0.504923	0.883542	10.1473	-1
164.25	153.4	Inf	0.00164169	24.511	24.4838	24.5382	32.7939	0.504817	0.928551	10.1475	-1
164.7	153.265	Inf	0.0016462	24.4829	24.4598	24.506	32.7933	0.505794	0.8998	10.1476	-1
165.15	153.271	Inf	0.00165072	24.4855	24.469	24.5021	32.7943	0.504963	0.890883	10.1473	-1
165.6	153.171	Inf	0.00165523	24.4777	24.464	24.4915	32.7959	0.505846	0.858889	10.1476	-1
166.05	153.118	Inf	0.00165969	24.4891	24.4606	24.5176	32.7948	0.505693	0.898584	10.1472	-1
166.5	153.107	Inf	0.0016642	24.5107	24.4678	24.5537	32.7945	0.505303	0.902518	10.1479	-1
166.95	153.044	Inf	0.00166873	24.4973	24.4787	24.5158	32.7964	0.506785	0.919604	10.1478	-1
167.4	152.996	Inf	0.00167322	24.4869	24.464	24.5097	32.7929	0.505435	0.877202	10.1476	-1
167.85	152.996	Inf	0.00167771	24.5002	24.4895	24.5108	32.7944	0.506934	0.863504	10.1473	-1
168.3	152.925	Inf	0.00168225	24.496	24.4798	24.5121	32.7951	0.506208	0.813238	10.1475	-1
168.75	152.837	Inf	0.00168668	24.477	24.4562	24.4977	32.7942	0.505235	0.874784	10.1474	-1
169.2	152.839	Inf	0.00169122	24.4783	24.4578	24.4987	32.7954	0.506062	0.918907	10.1477	-1
169.65	152.787	Inf	0.00169568	24.4929	24.4718	24.5141	32.7946	0.505935	0.929594	10.1479	-1
170.1	152.858	Inf	0.00170022	24.4932	24.4638	24.5227	32.7929	0.505664	0.936437	10.1474	-1
170.55	152.758	Inf	0.00170469	24.4764	24.4619	24.4909	32.7938	0.505719	0.915236	10.1473	-1
171	152.693	Inf	0.00170919	24.4942	24.4783	24.5102	32.7926	0.505614	0.95546	10.147	-1
171.45	152.66	Inf	0.0017137	24.4975	24.4738	24.5213	32.7934	0.506065	1.04685	10.1474	-1
171.9	152.667	Inf	0.00171819	24.4948	24.4725	24.5171	32.7945	0.505588	1.10076	10.1476	-1
172.35	152.716	Inf	0.00172268	24.4962	24.4814	24.511	32.7945	0.505197	1.09404	10.1475	-1
172.8	152.589	Inf	0.00172719	24.4919	24.4606	24.5233	32.793	0.505637	1.11237	10.1474	-1
173.25	152.5	Inf	0.00173167	24.4901	24.4798	24.5004	32.7934	0.50494	1.16397	10.1473	-1
173.7	152.723	Inf	0.0017362	24.4835	24.4712	24.4958	32.7964	0.505538	1.25385	10.1477	-1
174.15	152.54	Inf	0.00174067	24.4972	24.4823	24.5121	32.7951	0.50526	1.34724	10.1471	-1
174.6	152.546	Inf	0.00174517	24.4908	24.4758	24.5059	32.7965	0.505267	1.40656	10.1475	-1
175.05	152.563	Inf	0.00174968	24.4945	24.4804	24.5086	32.7949	0.504538	1.44637	10.1473	-1
175.5	152.481	Inf	0.00175418	24.4892	24.4733	24.5052	32.7941	0.505534	1.46802	10.1474	-1
175.95	152.5	Inf	0.00175865	24.4896	24.4741	24.5052	32.7957	0.505415	1.62507	10.1475	-1
176.4	152.49	Inf	0.00176317	24.4852	24.4639	24.5065	32.7949	0.505589	1.76673	10.1476	-1
176.85	152.543	Inf	0.00176769	24.4931	24.4846	24.5015	32.7951	0.505238	1.71954	10.1473	-1
177.3	152.419	Inf	0.00177221	24.5013	24.482	24.5206	32.7947	0.50537	1.60823	10.1472	-1
177.75	152.468	Inf	0.00177669	24.4861	24.4706	24.5016	32.7956	0.506265	1.56346	10.1476	-1
178.2	152.439	Inf	0.00178116	24.4911	24.4855	24.4967	32.7952	0.505334	1.60636	10.1472	-1
178.65	152.441	Inf	0.00178567	24.4969	24.4764	24.5174	32.7944	0.506523	1.62771	10.1476	-1
179.1	152.53	Inf	0.00179017	24.4922	24.4764	24.508	32.7926	0.505355	1.71573	10.1473	-1
179.55	152.343	Inf	0.00179468	24.4902	24.4774	24.503	32.7939	0.504836	1.63042	10.1473	-1
180	152.414	Inf	0.00179918	24.492	24.4745	24.5094	32.7958	0.50542	1.60826	10.1473	-1
180.45	152.372	Inf	0.00180369	24.5024	24.4826	24.5222	32.7947	0.505968	1.63571	10.1473	-1
180.9	152.335	Inf	0.00180816	24.4857	24.4615	24.51	32.795	0.506054	1.68483	10.1476	-1
181.35	152.292	Inf	0.00181267	24.4898	24.4792	24.5003	32.7941	0.505511	1.70941	10.1473	-1
181.8	152.43	Inf	0.00181716	24.5006	24.483	24.5181	32.796	0.504826	1.66221	10.1474	-1
182.25	152.404	Inf	0.00182166	24.4799	24.4725	24.4873	32.7947	0.505552	1.66335	10.1474	-1
182.7	152.271	Inf	0.00182616	24.4952	24.4879	24.5026	32.7945	0.504667	1.67775	10.1473	-1
183.15	152.33	Inf	0.00183063	24.4789	24.4633	24.4945	32.7957	0.506015	1.81399	10.147	-1
183.6	152.475	Inf	0.00183517	24.4825	24.4772	24.4878	32.7963	0.505367	1.83192	10.1472	-1
184.05	152.36	Inf	0.00183967	24.4933	24.4738	24.5127	32.7958	0.505632	1.81501	10.1472	-1
184.5	152.282	Inf	0.00184416	24.4921	24.473	24.5113	32.7944	0.505935	1.80412	10.1472	-1
184.95	152.459	Inf	0.00184867	24.5121	24.4982	24.5261	32.7946	0.506168	1.8099	10.1472	-1
185.4	152.375	Inf	0.00185317	24.4802	24.4583	24.5022	32.7948	0.505898	1.77048	10.1474	-1
185.85	152.266	Inf	0.00185774	24.4965	24.4743	24.5187	32.7952	0.504202	1.84834	10.1475	-1
186.3	152.403	Inf	0.00186217	24.4732	24.4441	24.5022	32.7956	0.504865	1.85535	10.1478	-1
186.75	152.309	Inf	0.0018667	24.498	24.4698	24.5263	32.7942	0.506949	1.78876	10.1471	-1
187.2	152.172	Inf	0.0018712	24.4837	24.4726	24.4949	32.7942	0.504889	1.76203	10.1474	-1
187.65	152.371	Inf	0.00187564	24.4907	24.4739	24.5075	32.7956	0.505756	1.81368	10.1474	-1
188.1	152.24	Inf	0.00188015	24.5078	24.4752	24.5403	32.7957	0.506366	1.94676	10.1472	-1
188.55	152.291	Inf	0.0018847	24.4982	24.4731	24.5233	32.7942	0.50523	1.98266	10.1473	-1
189	152.329	Inf	0.0018892	24.4758	24.4749	24.4768	32.7939	0.505159	1.91459	10.1473	-1
189.45	152.354	Inf	0.00189365	24.4805	24.4533	24.5077	32.7947	0.505326	1.90592	10.1474	-1
189.9	152.304	Inf	0.00189817	24.4887	24.4671	24.5103	32.7949	0.506117	1.95767	10.1475	-1
190.35	152.352	Inf	0.00190272	24.5037	24.4839	24.5234	32.7949	0.504722	1.99507	10.1471	-1
190.8	152.256	Inf	0.0019072	24.479	24.4592	24.4988	32.7953	0.505701	1.99845	10.1471	-1
191.25	152.279	Inf	0.00191169	24.4976	24.4826	24.5126	32.7926	0.505388	1.95943	10.1475	-1
191.7	152.272	Inf	0.00191622	24.4827	24.466	24.4994	32.7952	0.506288	1.89955	10.147	-1
192.15	152.164	Inf	0.00192071	24.4934	24.4755	24.5112	32.7945	0.505549	1.89525	10.1472	-1
192.6	152.199	Inf	0.00192519	24.4949	24.4751	24.5147	32.7957	0.505662	1.93199	10.1473	-1
193.05	152.141	Inf	0.00192966	24.4835	24.468	24.4989	32.7957	0.505827	1.95362	10.1474	-1
193.5	152.1	Inf	0.00193419	24.4901	24.4725	24.5077	32.7964	0.505718	1.84907	10.147	-1
193.95	152.274	Inf	0.00193875	24.482	24.4632	24.5008	32.7946	0.506081	1.83485	10.1469	-1
194.4	152.179	Inf	0.0019432	24.4941	24.4766	24.5116	32.7953	0.506149	1.77399	10.1471	-1
194.85	152.131	Inf	0.00194772	24.4827	24.4691	24.4963	32.7944	0.50561	1.72578	10.1472	-1
195.3	152.133	Inf	0.0019522	24.4911	24.4763	24.506	32.7957	0.505072	1.74532	10.1471	-1
195.75	152.088	Inf	0.00195672	24.4942	24.4675	24.5209	32.7944	0.506362	1.77635	10.147	-1
196.2	152.186	Inf	0.0019612	24.4784	24.4488	24.508	32.7949	0.505366	1.73865	10.1469	-1
196.65	152.119	Inf	0.0019657	24.4909	24.4671	24.5147	32.7949	0.505705	1.73728	10.1467	-1
197.1	152.185	Inf	0.00197021	24.4734	24.451	24.4957	32.7955	0.505728	1.79861	10.1472	-1
197.55	152.138	Inf	0.00197468	24.4909	24.4775	24.5043	32.7952	0.50532	1.90104	10.1472	-1
198	152.188	Inf	0.00197919	24.4887	24.4572	24.5202	32.7954	0.506012	1.93483	10.147	-1
198.45	152.297	Inf	0.00198372	24.4889	24.4786	24.4993	32.7955	0.505215	1.95359	10.1471	-1
198.9	152.388	Inf	0.0019882	24.4928	24.4733	24.5122	32.7961	0.505795	1.93007	10.1471	-1
199.35	152.365	Inf	0.00199269	24.4779	24.4556	24.5003	32.7952	0.506156	1.97317	10.1474	-1
199.8	152.379	Inf	0.00199715	24.4973	24.4748	24.5198	32.7952	0.505059	2.0131	10.1469	-1
200.25	152.348	Inf	0.00200171	24.4824	24.4637	24.501	32.7945	0.506103	2.05421	10.147	-1
200.7	152.552	Inf	0.0020062	24.4999	24.4744	24.5253	32.7955	0.504646	2.03363	10.1471	-1
201.15	152.427	Inf	0.0020107	24.5103	24.4827	24.5379	32.7955	0.505758	1.96002	10.1472	-1
201.6	152.437	Inf	0.00201518	24.4785	24.4522	24.5047	32.7969	0.505734	1.95116	10.1471	-1
202.05	152.555	Inf	0.00201971	24.4842	24.471	24.4974	32.7975	0.505144	1.93671	10.1474	-1
202.5	152.478	Inf	0.00202419	24.4802	24.4553	24.5051	32.7931	0.505547	1.94783	10.1473	-1
202.95	152.548	Inf	0.00202868	24.4978	24.4673	24.5283	32.7955	0.505757	1.94223	10.147	-1
203.4	152.542	Inf	0.0020332	24.4985	24.479	24.518	32.7963	0.505664	1.84785	10.1474	-1
203.85	152.569	Inf	0.0020377	24.4674	24.4455	24.4892	32.7973	0.50597	1.78246	10.1465	-1
204.3	152.676	Inf	0.00204218	24.475	24.4611	24.489	32.7946	0.505022	1.83541	10.1468	-1
204.75	152.713	Inf	0.00204669	24.498	24.4687	24.5274	32.7964	0.50659	1.86997	10.1473	-1
205.2	152.762	Inf	0.00205118	24.4845	24.458	24.511	32.7967	0.505659	1.86475	10.1472	-1
205.65	152.757	Inf	0.0020557	24.4966	24.4726	24.5207	32.7964	0.506499	1.85639	10.1473	-1
206.1	152.802	Inf	0.00206019	24.4952	24.4608	24.5295	32.7977	0.50501	1.76834	10.1471	-1
206.55	152.784	Inf	0.00206466	24.4897	24.4645	24.5149	32.7953	0.506933	1.83975	10.147	-1
207	152.814	Inf	0.00206919	24.4971	24.4788	24.5154	32.7947	0.506813	1.87683	10.1472	-1
207.45	152.83	Inf	0.00207369	24.4862	24.4517	24.5208	32.7962	0.504898	1.90741	10.1473	-1
207.9	152.926	Inf	0.00207817	24.4962	24.4751	24.5173	32.7971	0.506133	1.86979	10.1473	-1
208.35	152.954	Inf	0.00208273	24.4882	24.4773	24.499	32.7961	0.506042	1.80143	10.1472	-1
208.8	152.946	Inf	0.0020872	24.4784	24.4703	24.4865	32.798	0.505898	1.75227	10.1472	-1
209.25	153.06	Inf	0.0020917	24.4893	24.4647	24.5138	32.796	0.504831	1.80247	10.1471	-1
209.7	153.124	Inf	0.00209616	24.4843	24.46	24.5086	32.7971	0.504893	1.84756	10.1474	-1
210.15	153.183	Inf	0.00210068	24.4859	24.4592	24.5126	32.7966	0.505472	1.79333	10.1475	-1
210.6	153.244	Inf	0.00210519	24.4875	24.4604	24.5147	32.7951	0.505986	1.718	10.1473	-1
211.05	153.33	Inf	0.00210968	24.483	24.4642	24.5018	32.7953	0.505907	1.67741	10.1472	-1
211.5	153.258	Inf	0.00211417	24.4838	24.4615	24.5061	32.7959	0.505618	1.69249	10.1469	-1
211.95	153.407	Inf	0.00211867	24.4936	24.4771	24.5101	32.7967	0.505605	1.73011	10.147	-1
212.4	153.442	Inf	0.00212316	24.4882	24.46	24.5164	32.795	0.505977	1.78805	10.1471	-1
212.85	153.451	Inf	0.00212764	24.5047	24.4826	24.5267	32.7951	0.505606	1.78986	10.1474	-1
213.3	153.552	Inf	0.00213217	24.4878	24.4695	24.506	32.7967	0.506349	1.71647	10.1472	-1
213.75	153.61	Inf	0.00213667	24.4856	24.4643	24.5069	32.7951	0.506097	1.75493	10.1472	-1
214.2	153.631	Inf	0.00214114	24.4914	24.477	24.5058	32.7973	0.505863	1.84017	10.1469	-1
214.65	153.761	Inf	0.00214568	24.4821	24.4564	24.5078	32.7966	0.505951	1.86885	10.1473	-1
215.1	153.843	Inf	0.00215019	24.4937	24.4698	24.5176	32.7958	0.506304	1.82292	10.147	-1
215.55	153.871	Inf	0.00215468	24.4899	24.4814	24.4984	32.7962	0.506614	1.78717	10.1474	-1
216	153.921	Inf	0.00215917	24.4894	24.472	24.5068	32.7961	0.506566	1.82801	10.1476	-1
216.45	153.983	Inf	0.00216365	24.4915	24.4713	24.5118	32.7947	0.505054	1.8503	10.1473	-1
216.9	154.011	Inf	0.00216815	24.4825	24.4577	24.5074	32.7959	0.506208	1.90827	10.1472	-1
217.35	154.099	Inf	0.00217266	24.4903	24.4695	24.5111	32.7951	0.506187	1.87312	10.1472	-1
217.8	154.11	Inf	0.00217717	24.4799	24.4702	24.4896	32.7954	0.505725	1.80066	10.1473	-1
218.25	154.163	Inf	0.00218167	24.4902	24.4647	24.5158	32.796	0.506429	1.76686	10.1472	-1
218.7	154.15	Inf	0.00218613	24.4896	24.4737	24.5056	32.796	0.505809	1.7394	10.1473	-1
219.15	154.281	Inf	0.00219065	24.4884	24.4657	24.5111	32.7956	0.505865	1.75648	10.1471	-1
219.6	154.318	Inf	0.00219518	24.488	24.4656	24.5103	32.7967	0.505789	1.75134	10.1471	-1
220.05	154.315	Inf	0.00219968	24.4944	24.4741	24.5146	32.7962	0.505798	1.67946	10.1472	-1
220.5	154.349	Inf	0.00220414	24.498	24.4843	24.5118	32.7976	0.505539	1.66104	10.1471	-1
220.95	154.403	Inf	0.00220864	24.4864	24.4778	24.4949	32.7957	0.507003	1.67822	10.1469	-1
221.4	154.479	Inf	0.00221315	24.4827	24.4636	24.5018	32.797	0.505932	1.74296	10.1473	-1
221.85	154.539	Inf	0.00221765	24.4787	24.4714	24.486	32.7966	0.50611	1.78754	10.1473	-1
222.3	154.642	Inf	0.00222215	24.4802	24.4709	24.4895	32.7959	0.505923	1.75153	10.1473	-1
222.75	154.62	Inf	0.00222663	24.4866	24.4816	24.4916	32.7955	0.506689	1.72024	10.147	-1
223.2	154.646	Inf	0.00223118	24.4781	24.4717	24.4846	32.7951	0.506596	1.7052	10.1474	-1
223.65	154.73	Inf	0.00223564	24.4971	24.4869	24.5073	32.7965	0.506024	1.72559	10.1467	-1
224.1	154.726	Inf	0.00224013	24.4927	24.4763	24.5091	32.7956	0.505719	1.76567	10.147	-1
224.55	154.734	Inf	0.00224466	24.4863	24.4625	24.5101	32.7963	0.505891	1.79734	10.1467	-1
225	154.79	Inf	0.00224915	24.4887	24.4701	24.5072	32.7953	0.505603	1.6835	10.1472	-1
225.45	154.972	Inf	0.00225363	24.4973	24.4745	24.52	32.7952	0.506171	1.66689	10.1468	-1
225.9	154.88	Inf	0.00225811	24.511	24.4796	24.5424	32.7955	0.506367	1.73994	10.1469	-1
226.35	154.903	Inf	0.00226263	24.475	24.4588	24.4913	32.7962	0.506528	1.80174	10.1471	-1
226.8	155.127	Inf	0.00226719	24.4859	24.4742	24.4975	32.7955	0.50666	1.77479	10.1476	-1
227.25	155.184	Inf	0.00227163	24.4763	24.47	24.4827	32.7964	0.505247	1.72983	10.1471	-1
227.7	155.11	Inf	0.00227612	24.4788	24.4791	24.4784	32.7959	0.505636	1.69577	10.1464	-1
228.15	155.143	Inf	0.00228062	24.4776	24.4594	24.4958	32.7961	0.504945	1.68169	10.1467	-1
228.6	155.115	Inf	0.00228514	24.4722	24.4599	24.4846	32.7978	0.504968	1.73532	10.1472	-1
229.05	155.241	Inf	0.00228968	24.4771	24.4571	24.4971	32.7965	0.505525	1.70871	10.1469	-1
229.5	155.286	Inf	0.00229415	24.481	24.4409	24.5211	32.7958	0.50567	1.6697	10.1475	-1
229.95	155.212	Inf	0.00229865	24.4984	24.4573	24.5395	32.7974	0.506437	1.6565	10.1471	-1
230.4	155.389	Inf	0.00230311	24.4856	24.4538	24.5174	32.7971	0.506562	1.66738	10.1469	-1
230.85	155.414	Inf	0.00230761	24.4818	24.4559	24.5077	32.795	0.506409	1.74382	10.1467	-1
231.3	155.387	Inf	0.00231214	24.4856	24.4634	24.5079	32.7961	0.505662	1.74755	10.147	-1
231.75	155.593	Inf	0.00231663	24.4981	24.4823	24.5138	32.7963	0.505169	1.74515	10.147	-1
232.2	-1.75584	-1.74031	0.00232072	24.5012	24.4805	24.522	32.7965	0.506375	-0.197705	10.1455	-1
232.65	-1.86433	-1.86689	0.00232563	24.4907	24.4809	24.5005	32.7998	0.506168	0.531003	10.1452	-1
233.1	-1.90444	-1.8913	0.00233009	24.4986	24.4743	24.523	32.7985	0.506622	0.599473	10.145	-1
233.55	-2.02288	-1.89156	0.00233462	24.5015	24.4889	24.5142	32.7977	0.50784	0.633925	10.1455	-1
234	-1.87374	-1.9028	0.00233915	24.4883	24.4816	24.4949	32.7978	0.507054	0.607136	10.1455	-1
234.45	-1.88444	-1.90441	0.00234364	24.4939	24.478	24.5097	32.7966	0.50735	0.569576	10.1454	-1
234.9	-1.884	-1.89354	0.00234813	24.4994	24.485	24.5137	32.7981	0.506828	0.526918	10.1454	-1
235.2	-1.94785	-1.90619	0.00235112	24.5071	24.4897	24.5245	32.7971	0.507138	0.544001	10.1452	-1