File: data/ReportRaw/Resin_TXT/V4_Resin/Tensile_Test_02.txt
Program Started: Tue, Jul 16, 2024	1:13:32 PM	System: µTS4
Test Notes:

User displacement limits active. Low limit -20.000E-3 m, high limit 20.000E-3 m.
User load limits active. Low limit -1.600E+3 N, high limit 1.600E+3 N.

No closed loop control sensors in this test.

Test Segments:
 1. Ramp in Drive Control, +5.00E-3m Amplitude, 10.00E-6 m/s Speed. Sampling at 20.000 Hz, Lowpass Filter Cutoff of 100.000 Hz

Specimen Thickness (m): 	1.550E-3
Specimen Width (m): 	1.910E-3
Specimen Diameter (m): 	0.000E+0
Specimen Area (m^2): 	2.960E-6
Specimen Length (m): 	5.000E-3

Test Started: Tue, Jul 16, 2024	1:43:28 PM
Time (s)	LCFS1600 (N)	LCW1600 (N)	ECATENC (m)	SpecTemp (C)	AirTemp (C)	OutletTemp (C)	JTemp1600 (C)	GTemp1600 (C)	CUR (A)	Ve (V)	Trigger (#)
0.0000000000E+0	-0.291592	-0.329273	6.43149e-16	24.5218	24.5063	24.5373	32.8019	0.508303	0.0628645	10.1453	-1
0.45	0.485461	0.518275	2.85345e-06	24.5219	24.4968	24.5471	32.8005	0.507148	0.154155	10.1453	-1
0.9	1.68937	1.61618	7.35894e-06	24.5087	24.4927	24.5246	32.801	0.507709	0.17514	10.1459	-1
1.35	2.44136	2.47252	1.18891e-05	24.5123	24.493	24.5316	32.8027	0.505806	0.182288	10.1459	-1
1.8	3.09126	3.22418	1.63787e-05	24.514	24.4907	24.5374	32.8021	0.506514	0.143179	10.1457	-1
2.25	3.89616	3.86358	2.08859e-05	24.5161	24.501	24.5313	32.8011	0.506366	0.0941739	10.1459	-1
2.7	4.50336	4.50222	2.5376e-05	24.5055	24.4885	24.5224	32.8019	0.506243	0.113731	10.1463	-1
3.15	5.08914	5.1623	2.9854e-05	24.5118	24.4904	24.5333	32.799	0.507008	0.147766	10.146	-1
3.6	5.87136	5.83839	3.43676e-05	24.5031	24.4795	24.5267	32.8002	0.506184	0.204821	10.1463	-1
4.05	6.52361	6.54226	3.88765e-05	24.5138	24.4951	24.5325	32.8019	0.507529	0.197059	10.146	-1
4.5	7.25572	7.22767	4.33726e-05	24.532	24.5275	24.5364	32.801	0.506105	0.182213	10.1459	-1
4.95	7.87779	7.95226	4.78598e-05	24.5053	24.479	24.5316	32.8015	0.506462	0.190215	10.1467	-1
5.4	8.59684	8.69013	5.23532e-05	24.5291	24.5252	24.533	32.7998	0.506907	0.222134	10.1462	-1
5.85	9.43723	9.44249	5.68669e-05	24.5017	24.494	24.5094	32.8012	0.506477	0.260009	10.146	-1
6.3	10.1567	10.1862	6.13671e-05	24.505	24.4966	24.5134	32.8013	0.505739	0.234301	10.146	-1
6.75	10.82	10.9527	6.58614e-05	24.5184	24.4927	24.5441	32.8021	0.506662	0.190082	10.1462	-1
7.2	11.5394	11.7554	7.03503e-05	24.5186	24.4873	24.55	32.802	0.50581	0.15004	10.1464	-1
7.65	12.6111	12.5757	7.48613e-05	24.5291	24.5073	24.551	32.8023	0.507187	0.178619	10.1462	-1
8.1	13.3572	13.3827	7.93561e-05	24.499	24.4883	24.5097	32.7991	0.506526	0.199041	10.1464	-1
8.55	14.1493	14.2292	8.38593e-05	24.5119	24.4903	24.5335	32.8014	0.507314	0.201068	10.1464	-1
9	14.9398	15.0982	8.83702e-05	24.5048	24.4851	24.5245	32.8008	0.506791	0.177866	10.1461	-1
9.45	15.8973	15.9786	9.28691e-05	24.4959	24.4823	24.5096	32.801	0.507164	0.144318	10.1464	-1
9.9	16.98	16.8549	9.7344e-05	24.5092	24.4865	24.5319	32.8014	0.507508	0.158856	10.1464	-1
10.35	17.7071	17.7776	0.000101844	24.5072	24.4856	24.5287	32.7986	0.50562	0.257767	10.1464	-1
10.8	18.6667	18.6716	0.000106364	24.4974	24.4889	24.5059	32.8004	0.506804	0.246714	10.1467	-1
11.25	19.6468	19.6315	0.000110855	24.5032	24.4896	24.5168	32.8013	0.506171	0.235013	10.1462	-1
11.7	20.5718	20.5872	0.000115353	24.5221	24.5056	24.5386	32.8013	0.506193	0.211362	10.1465	-1
12.15	21.5168	21.5336	0.000119827	24.4971	24.4701	24.524	32.8006	0.506165	0.21235	10.1468	-1
12.6	22.5299	22.5242	0.000124282	24.5073	24.5022	24.5124	32.8013	0.50633	0.266866	10.1469	-1
13.05	23.5311	23.4942	0.000128779	24.5054	24.4932	24.5176	32.7992	0.507306	0.307749	10.1469	-1
13.5	24.4303	24.4891	0.000133305	24.5019	24.4856	24.5182	32.8016	0.506059	0.307858	10.1468	-1
13.95	25.476	25.411	0.000137787	24.4987	24.4825	24.5149	32.8007	0.505833	0.274829	10.1471	-1
14.4	26.4048	26.4319	0.000142284	24.5052	24.4882	24.5222	32.8009	0.50617	0.288435	10.1468	-1
14.85	27.5695	Inf	0.000146781	24.5063	24.5051	24.5075	32.801	0.505819	0.285182	10.147	-1
15.3	28.5335	Inf	0.000151286	24.5227	24.5004	24.545	32.8005	0.506475	0.309912	10.1472	-1
15.75	29.3691	Inf	0.00015579	24.4904	24.4633	24.5174	32.8002	0.506057	0.328881	10.1474	-1
16.2	30.4571	Inf	0.000160293	24.5095	24.4891	24.5299	32.8005	0.505747	0.274547	10.1469	-1
16.65	31.3194	Inf	0.000164789	24.5046	24.4805	24.5287	32.8001	0.505038	0.252655	10.1469	-1
17.1	32.1046	Inf	0.00016928	24.4998	24.4697	24.5298	32.8008	0.505695	0.265886	10.1473	-1
17.55	33.0492	Inf	0.00017377	24.5136	24.4921	24.5351	32.7992	0.506553	0.282774	10.1471	-1
18	33.8925	Inf	0.000178271	24.4997	24.4911	24.5083	32.8004	0.507009	0.312833	10.1476	-1
18.45	34.8079	Inf	0.000182784	24.513	24.5021	24.524	32.8009	0.505552	0.27606	10.1474	-1
18.9	35.7861	Inf	0.000187301	24.5021	24.4893	24.5149	32.8016	0.505514	0.275644	10.1473	-1
19.35	36.5861	Inf	0.000191777	24.4987	24.4817	24.5156	32.8005	0.505561	0.262909	10.1473	-1
19.8	37.4404	Inf	0.000196258	24.5146	24.5064	24.5229	32.8011	0.505296	0.311207	10.147	-1
20.25	38.1937	Inf	0.000200763	24.4985	24.4791	24.5179	32.8013	0.505887	0.352925	10.1474	-1
20.7	38.836	Inf	0.000205292	24.5053	24.4905	24.52	32.7995	0.505318	0.342725	10.1471	-1
21.15	39.6869	Inf	0.000209775	24.4961	24.473	24.5192	32.8005	0.505902	0.289433	10.1474	-1
21.6	40.4159	Inf	0.000214264	24.4923	24.4715	24.5131	32.8001	0.505895	0.273636	10.147	-1
22.05	41.1229	Inf	0.000218758	24.4892	24.4755	24.5029	32.8	0.506259	0.339078	10.1472	-1
22.5	41.9374	Inf	0.000223263	24.504	24.4777	24.5302	32.8007	0.505697	0.371866	10.1476	-1
22.95	42.6531	Inf	0.000227792	24.5064	24.4889	24.5239	32.8005	0.506062	0.380162	10.1473	-1
23.4	43.4548	Inf	0.000232268	24.4893	24.475	24.5036	32.8011	0.504715	0.306243	10.1472	-1
23.85	44.1853	Inf	0.000236774	24.5004	24.4861	24.5146	32.8017	0.505614	0.288166	10.1473	-1
24.3	44.8812	Inf	0.000241247	24.4977	24.4809	24.5145	32.802	0.506424	0.32826	10.1472	-1
24.75	45.6886	Inf	0.00024576	24.5082	24.4981	24.5183	32.8014	0.505162	0.336241	10.1471	-1
25.2	46.3893	Inf	0.000250268	24.4833	24.465	24.5016	32.8005	0.506332	0.315964	10.1471	-1
25.65	47.1843	Inf	0.000254776	24.5036	24.5026	24.5046	32.8011	0.505605	0.264558	10.1478	-1
26.1	47.8721	Inf	0.000259258	24.4951	24.479	24.5112	32.7999	0.505959	0.233135	10.1474	-1
26.55	48.7348	Inf	0.000263756	24.5034	24.4816	24.5251	32.8003	0.505696	0.245322	10.1476	-1
27	49.6841	Inf	0.000268262	24.4962	24.4773	24.515	32.8008	0.505448	0.293698	10.1474	-1
27.45	50.5505	Inf	0.000272775	24.4993	24.4831	24.5156	32.8006	0.505024	0.365119	10.1473	-1
27.9	51.4191	Inf	0.000277254	24.4958	24.498	24.4935	32.8011	0.505416	0.335952	10.1476	-1
28.35	52.2206	Inf	0.000281753	24.5258	24.5009	24.5506	32.8006	0.505737	0.346402	10.1472	-1
28.8	52.9868	Inf	0.000286249	24.5024	24.4816	24.5232	32.8013	0.505926	0.331666	10.1472	-1
29.25	53.8652	Inf	0.000290746	24.5089	24.499	24.5188	32.8009	0.505649	0.37347	10.1469	-1
29.7	54.6306	Inf	0.000295246	24.503	24.4872	24.5188	32.8032	0.50563	0.375277	10.1473	-1
30.15	55.2624	Inf	0.000299792	24.5048	24.4862	24.5234	32.8003	0.505963	0.412385	10.1473	-1
30.6	56.1572	Inf	0.000304305	24.4953	24.4951	24.4956	32.8017	0.505951	0.315993	10.1468	-1
31.05	56.8061	Inf	0.000308746	24.5114	24.498	24.5247	32.8029	0.505028	0.304429	10.1472	-1
31.5	57.7013	Inf	0.000313239	24.5183	24.5075	24.5291	32.801	0.505591	0.347495	10.1471	-1
31.95	58.6802	Inf	0.000317795	24.486	24.4751	24.4969	32.8037	0.505165	0.364177	10.1473	-1
32.4	59.4542	Inf	0.000322285	24.5048	24.4837	24.5259	32.8029	0.505132	0.375106	10.1472	-1
32.85	60.4888	Inf	0.000326748	24.5034	24.4881	24.5187	32.8026	0.505158	0.343877	10.1474	-1
33.3	61.3186	Inf	0.000331275	24.4864	24.4722	24.5006	32.8008	0.505525	0.300385	10.1472	-1
33.75	62.2492	Inf	0.000335766	24.491	24.4774	24.5046	32.802	0.50564	0.313101	10.1471	-1
34.2	63.0664	Inf	0.000340235	24.504	24.5009	24.5072	32.801	0.504404	0.356027	10.1472	-1
34.65	63.9391	Inf	0.000344734	24.5025	24.4864	24.5186	32.8024	0.505136	0.369681	10.1472	-1
35.1	64.738	Inf	0.000349299	24.4936	24.4851	24.502	32.8019	0.505438	0.357865	10.1474	-1
35.55	65.5203	Inf	0.000353763	24.4974	24.4715	24.5233	32.8018	0.506097	0.278844	10.1472	-1
36	66.4383	Inf	0.000358232	24.4812	24.464	24.4984	32.8019	0.504612	0.276205	10.1472	-1
36.45	67.2886	Inf	0.000362721	24.486	24.4793	24.4926	32.8011	0.505712	0.326054	10.1474	-1
36.9	68.2374	Inf	0.000367233	24.4948	24.4784	24.5112	32.8024	0.505568	0.391979	10.1468	-1
37.35	69.1787	Inf	0.000371803	24.5105	24.4937	24.5274	32.8028	0.504942	0.359742	10.1469	-1
37.8	70.0875	Inf	0.000376264	24.5148	24.5111	24.5185	32.8007	0.505737	0.361194	10.1472	-1
38.25	71.0538	Inf	0.000380765	24.5107	24.4887	24.5327	32.8005	0.50667	0.363005	10.1472	-1
38.7	71.9455	Inf	0.000385286	24.5099	24.493	24.5268	32.8016	0.505732	0.385242	10.1467	-1
39.15	72.7277	Inf	0.00038977	24.5145	24.488	24.5411	32.8016	0.505939	0.433422	10.1473	-1
39.6	73.6394	Inf	0.000394285	24.5073	24.4902	24.5244	32.8023	0.505658	0.419952	10.1471	-1
40.05	74.4105	Inf	0.000398784	24.5027	24.4944	24.511	32.8004	0.504923	0.372382	10.1467	-1
40.5	75.171	Inf	0.000403317	24.5114	24.4902	24.5326	32.802	0.504974	0.363675	10.1472	-1
40.95	76.1305	Inf	0.000407789	24.5039	24.4902	24.5176	32.7995	0.505626	0.405038	10.147	-1
41.4	77.0175	Inf	0.000412268	24.5165	24.5035	24.5295	32.8023	0.506114	0.439446	10.1472	-1
41.85	78.0242	Inf	0.000416784	24.4979	24.4868	24.5089	32.8019	0.50569	0.421376	10.1473	-1
42.3	78.9045	Inf	0.000421288	24.5138	24.5022	24.5254	32.8007	0.504718	0.399257	10.1469	-1
42.75	79.8085	Inf	0.000425777	24.4984	24.4747	24.5221	32.8025	0.505442	0.371147	10.1475	-1
43.2	80.9506	Inf	0.000430267	24.5073	24.5007	24.5138	32.8014	0.505765	0.418643	10.1471	-1
43.65	81.8831	Inf	0.000434772	24.4966	24.4871	24.5061	32.801	0.505915	0.483203	10.1472	-1
44.1	82.8288	Inf	0.000439287	24.5108	24.4926	24.529	32.8008	0.506053	0.471287	10.1471	-1
44.55	83.8291	Inf	0.00044378	24.5079	24.4947	24.5211	32.8023	0.506483	0.440824	10.1471	-1
45	84.7431	Inf	0.000448279	24.5082	24.4969	24.5195	32.7997	0.505871	0.481486	10.1471	-1
45.45	85.6928	Inf	0.000452767	24.513	24.5095	24.5166	32.8002	0.505734	0.501814	10.1471	-1
45.9	86.5909	Inf	0.000457281	24.4982	24.4768	24.5197	32.8012	0.505281	0.564359	10.147	-1
46.35	87.41	Inf	0.00046177	24.5077	24.5007	24.5148	32.8024	0.50559	0.611207	10.1473	-1
46.8	88.4579	Inf	0.000466292	24.5053	24.4817	24.5289	32.8016	0.505573	0.621663	10.1472	-1
47.25	89.2564	Inf	0.000470775	24.5138	24.4963	24.5314	32.801	0.505577	0.605696	10.1473	-1
47.7	90.1618	Inf	0.000475293	24.5114	24.4961	24.5268	32.8023	0.505519	0.606106	10.147	-1
48.15	91.0916	Inf	0.000479765	24.5008	24.4857	24.5159	32.8014	0.505093	0.593755	10.1471	-1
48.6	92.1009	Inf	0.000484276	24.5001	24.4882	24.512	32.8023	0.505139	0.61997	10.1471	-1
49.05	92.9625	Inf	0.000488768	24.5042	24.4868	24.5217	32.8016	0.505924	0.565066	10.1471	-1
49.5	94.0606	Inf	0.000493279	24.5041	24.4927	24.5155	32.802	0.504452	0.52285	10.1474	-1
49.95	94.8818	Inf	0.000497797	24.5149	24.5048	24.5249	32.8026	0.504165	0.499959	10.147	-1
50.4	95.7322	Inf	0.000502278	24.5146	24.4867	24.5425	32.8012	0.505595	0.520718	10.1471	-1
50.85	96.7198	Inf	0.000506752	24.5033	24.4949	24.5118	32.8021	0.505613	0.575214	10.147	-1
51.3	97.7636	Inf	0.000511277	24.4975	24.4814	24.5136	32.8029	0.505458	0.597408	10.1467	-1
51.75	98.7273	Inf	0.000515774	24.5132	24.5086	24.5177	32.8012	0.505862	0.571288	10.1471	-1
52.2	99.838	Inf	0.000520278	24.5018	24.4863	24.5172	32.8027	0.505209	0.5533	10.1472	-1
52.65	100.918	Inf	0.000524742	24.5055	24.4803	24.5307	32.8016	0.505111	0.590432	10.1469	-1
53.1	101.957	Inf	0.000529237	24.5046	24.4858	24.5234	32.8021	0.506019	0.613696	10.1473	-1
53.55	103.028	Inf	0.000533744	24.4986	24.4752	24.5219	32.8008	0.505598	0.642936	10.1471	-1
54	104.145	Inf	0.000538247	24.494	24.4758	24.5121	32.8027	0.50549	0.656367	10.1473	-1
54.45	105.108	Inf	0.000542748	24.4983	24.4821	24.5146	32.8022	0.506279	0.632387	10.1472	-1
54.9	106.224	Inf	0.000547271	24.5035	24.4912	24.5158	32.8019	0.505637	0.649779	10.1473	-1
55.35	107.184	Inf	0.000551741	24.4924	24.477	24.5078	32.8011	0.506039	0.670945	10.1476	-1
55.8	108.39	Inf	0.000556238	24.5103	24.4899	24.5308	32.8008	0.505302	0.730203	10.1474	-1
56.25	109.452	Inf	0.000560738	24.5214	24.5102	24.5327	32.8022	0.504868	0.702708	10.1471	-1
56.7	110.391	Inf	0.000565297	24.5057	24.494	24.5175	32.8011	0.505878	0.66916	10.1471	-1
57.15	111.404	Inf	0.000569755	24.5097	24.4971	24.5222	32.8022	0.504743	0.637942	10.1472	-1
57.6	112.393	Inf	0.000574252	24.5016	24.4893	24.5138	32.8026	0.505425	0.614425	10.1473	-1
58.05	113.506	Inf	0.000578746	24.5101	24.4793	24.5409	32.8039	0.505404	0.668991	10.1474	-1
58.5	114.493	Inf	0.000583271	24.5142	24.4958	24.5326	32.8018	0.504694	0.644214	10.1472	-1
58.95	115.441	Inf	0.000587746	24.5089	24.4914	24.5264	32.8035	0.50552	0.598229	10.1473	-1
59.4	116.363	Inf	0.000592232	24.5229	24.5158	24.5301	32.8015	0.505132	0.585799	10.1472	-1
59.85	117.388	Inf	0.000596724	24.4944	24.4795	24.5094	32.8015	0.505488	0.62218	10.1471	-1
60.3	118.436	Inf	0.000601251	24.5201	24.5116	24.5286	32.8024	0.504511	0.738124	10.1472	-1
60.75	119.425	Inf	0.000605762	24.4983	24.4828	24.5138	32.8025	0.505637	0.746322	10.147	-1
61.2	120.331	Inf	0.000610238	24.5004	24.4874	24.5135	32.8016	0.506337	0.70954	10.1471	-1
61.65	121.363	Inf	0.000614762	24.5054	24.4934	24.5174	32.8027	0.505012	0.69357	10.1474	-1
62.1	122.252	Inf	0.00061926	24.5037	24.4889	24.5185	32.8011	0.506139	0.689141	10.1472	-1
62.55	123.189	Inf	0.000623741	24.5052	24.4769	24.5334	32.8033	0.505023	0.724092	10.1472	-1
63	124.112	Inf	0.000628259	24.5057	24.5019	24.5095	32.8028	0.504964	0.786381	10.1468	-1
63.45	125.018	Inf	0.000632758	24.5045	24.4799	24.5291	32.8016	0.504917	0.819699	10.1476	-1
63.9	125.959	Inf	0.000637238	24.4991	24.4976	24.5007	32.8024	0.506022	0.768664	10.1475	-1
64.35	126.767	Inf	0.000641755	24.501	24.4909	24.511	32.8017	0.506752	0.759223	10.1475	-1
64.8	127.631	Inf	0.000646246	24.5101	24.4952	24.525	32.8007	0.505554	0.781929	10.147	-1
65.25	128.683	Inf	0.00065074	24.4989	24.4713	24.5266	32.8025	0.505517	0.825802	10.1472	-1
65.7	129.422	Inf	0.000655256	24.4946	24.4961	24.4932	32.803	0.506026	0.804275	10.1475	-1
66.15	130.201	Inf	0.000659755	24.5043	24.4844	24.5241	32.8045	0.506028	0.787498	10.1472	-1
66.6	131.132	Inf	0.000664253	24.5101	24.4986	24.5215	32.803	0.505587	0.72307	10.1471	-1
67.05	132.085	Inf	0.000668755	24.5077	24.4941	24.5213	32.8011	0.505439	0.75034	10.1475	-1
67.5	132.833	Inf	0.000673241	24.4889	24.4787	24.4992	32.802	0.504646	0.779744	10.1471	-1
67.95	133.765	Inf	0.000677741	24.5163	24.4914	24.5413	32.8027	0.504281	0.768148	10.1474	-1
68.4	134.531	Inf	0.000682249	24.4983	24.4911	24.5055	32.8012	0.504632	0.713624	10.1471	-1
68.85	135.309	Inf	0.000686748	24.503	24.4749	24.5311	32.8021	0.504675	0.668495	10.1472	-1
69.3	136.084	Inf	0.000691215	24.5143	24.5051	24.5236	32.803	0.505886	0.701045	10.1474	-1
69.75	136.876	Inf	0.000695726	24.5002	24.4818	24.5186	32.8024	0.505249	0.781121	10.1472	-1
70.2	137.68	Inf	0.000700225	24.4972	24.4848	24.5095	32.802	0.505613	0.810611	10.1474	-1
70.65	138.627	Inf	0.000704749	24.5019	24.4875	24.5163	32.8025	0.505093	0.824423	10.1473	-1
71.1	139.286	Inf	0.00070924	24.5077	24.4847	24.5307	32.8039	0.505244	0.841005	10.1476	-1
71.55	140.066	Inf	0.000713714	24.5231	24.5082	24.538	32.8031	0.506066	0.815048	10.1471	-1
72	140.897	Inf	0.00071822	24.4883	24.4669	24.5096	32.8033	0.505362	0.884355	10.1471	-1
72.45	141.538	Inf	0.00072271	24.5121	24.503	24.5213	32.8014	0.505595	0.917294	10.1472	-1
72.9	142.341	Inf	0.000727247	24.4983	24.4872	24.5093	32.8021	0.505674	0.909991	10.1472	-1
73.35	143.104	Inf	0.000731736	24.5045	24.4977	24.5114	32.8022	0.505275	0.839613	10.1472	-1
73.8	143.74	Inf	0.000736228	24.5147	24.5017	24.5276	32.8026	0.504721	0.809834	10.1471	-1
74.25	144.568	Inf	0.000740726	24.5067	24.4907	24.5228	32.804	0.505127	0.822177	10.147	-1
74.7	145.244	Inf	0.000745203	24.5027	24.4894	24.516	32.8036	0.505229	0.911561	10.1478	-1
75.15	145.966	Inf	0.000749713	24.5119	24.488	24.5358	32.8016	0.505237	0.887938	10.147	-1
75.6	146.615	Inf	0.000754208	24.5046	24.4898	24.5194	32.8026	0.505069	0.878369	10.1476	-1
76.05	147.417	Inf	0.000758725	24.5042	24.4908	24.5175	32.8048	0.50616	0.825411	10.1473	-1
76.5	147.996	Inf	0.000763219	24.5067	24.4952	24.5183	32.8029	0.505837	0.865683	10.1472	-1
76.95	148.632	Inf	0.000767686	24.5033	24.4869	24.5196	32.8026	0.505664	0.912396	10.147	-1
77.4	149.419	Inf	0.000772225	24.4881	24.4844	24.4917	32.8012	0.505446	0.960375	10.1474	-1
77.85	149.948	Inf	0.000776709	24.508	24.4917	24.5244	32.8022	0.505305	0.948987	10.1475	-1
78.3	150.598	Inf	0.000781227	24.5098	24.4919	24.5277	32.8021	0.505978	0.892523	10.1469	-1
78.75	151.095	Inf	0.000785706	24.4941	24.4793	24.5088	32.8034	0.505843	0.917384	10.1468	-1
79.2	151.948	Inf	0.000790172	24.5042	24.5015	24.507	32.8032	0.505	1.03915	10.1472	-1
79.65	152.346	Inf	0.000794681	24.4974	24.473	24.5217	32.8017	0.505584	1.03501	10.1474	-1
80.1	153.031	Inf	0.000799215	24.5152	24.4999	24.5305	32.8046	0.504809	1.04117	10.147	-1
80.55	153.576	Inf	0.00080372	24.5051	24.4905	24.5198	32.8025	0.506054	1.0017	10.1471	-1
81	154.176	Inf	0.000808217	24.5105	24.5054	24.5157	32.8023	0.504933	0.967248	10.1474	-1
81.45	154.669	Inf	0.000812716	24.4793	24.4666	24.4921	32.8031	0.50567	0.976545	10.1475	-1
81.9	155.161	Inf	0.000817186	24.5048	24.4767	24.5328	32.8048	0.505364	1.04616	10.1475	-1
82.35	155.704	Inf	0.000821728	24.5113	24.4922	24.5303	32.8016	0.50447	1.04429	10.1469	-1
82.8	156.164	Inf	0.000826211	24.5136	24.4898	24.5373	32.8021	0.505325	0.969295	10.147	-1
83.25	156.654	Inf	0.000830686	24.4984	24.4842	24.5125	32.803	0.504737	0.908803	10.1469	-1
83.7	157.216	Inf	0.000835199	24.4971	24.4804	24.5138	32.8022	0.506033	0.983314	10.1474	-1
84.15	157.669	Inf	0.000839686	24.5034	24.4891	24.5176	32.8025	0.506003	1.0501	10.1469	-1
84.6	158.041	Inf	0.000844195	24.5104	24.5027	24.5182	32.8022	0.505309	1.1092	10.1472	-1
85.05	158.554	Inf	0.00084871	24.5243	24.5107	24.5378	32.8048	0.50544	1.0738	10.1469	-1
85.5	159.021	Inf	0.000853217	24.5109	24.4941	24.5277	32.802	0.505355	1.0407	10.147	-1
85.95	159.321	Inf	0.000857705	24.4968	24.4859	24.5077	32.8025	0.50589	1.01959	10.1478	-1
86.4	159.818	Inf	0.000862216	24.507	24.4975	24.5165	32.8022	0.506901	1.03613	10.1474	-1
86.85	160.238	Inf	0.000866703	24.4875	24.4676	24.5075	32.8032	0.506127	1.06241	10.1474	-1
87.3	160.666	Inf	0.000871202	24.5162	24.5038	24.5286	32.8041	0.505779	1.06576	10.1476	-1
87.75	160.839	Inf	0.000875726	24.4993	24.4884	24.5102	32.8031	0.505487	0.995674	10.1473	-1
88.2	161.337	Inf	0.000880174	24.4906	24.4793	24.502	32.8024	0.504766	1.00818	10.1471	-1
88.65	161.472	Inf	0.000884654	24.5092	24.4982	24.5201	32.8036	0.505683	1.07389	10.147	-1
89.1	161.937	Inf	0.000889175	24.5083	24.4834	24.5332	32.8016	0.506192	1.13365	10.1472	-1
89.55	162.16	Inf	0.000893708	24.495	24.4945	24.4955	32.8028	0.505173	1.12663	10.1477	-1
90	162.502	Inf	0.000898209	24.5126	24.4972	24.528	32.8036	0.505921	1.08438	10.1472	-1
90.45	162.794	Inf	0.000902675	24.5	24.4883	24.5117	32.8025	0.506404	1.05019	10.1469	-1
90.9	162.939	Inf	0.000907168	24.5071	24.4933	24.5209	32.8022	0.505455	1.05338	10.1472	-1
91.35	163.231	Inf	0.000911695	24.4987	24.5042	24.4932	32.8032	0.506163	1.06404	10.1474	-1
91.8	163.56	Inf	0.000916174	24.5061	24.4952	24.517	32.8029	0.50501	1.06052	10.1468	-1
92.25	163.73	Inf	0.000920653	24.4986	24.4856	24.5116	32.801	0.506496	0.998568	10.147	-1
92.7	163.968	Inf	0.000925197	24.4984	24.4849	24.5118	32.8037	0.505034	0.916913	10.1471	-1
93.15	164.017	Inf	0.000929677	24.5121	24.5047	24.5195	32.8034	0.50565	0.934995	10.147	-1
93.6	164.163	Inf	0.000934172	24.485	24.462	24.5079	32.8043	0.50645	1.00728	10.1475	-1
94.05	164.404	Inf	0.000938674	24.5019	24.4907	24.5131	32.8025	0.505817	1.0772	10.1473	-1
94.5	164.454	Inf	0.000943194	24.4834	24.4593	24.5075	32.8039	0.506243	1.03007	10.1472	-1
94.95	164.647	Inf	0.000947673	24.5097	24.4952	24.5242	32.8028	0.505008	1.03465	10.1475	-1
95.4	164.794	Inf	0.000952166	24.4908	24.4856	24.4961	32.8048	0.505494	1.02372	10.1468	-1
95.85	164.871	Inf	0.000956658	24.4945	24.4721	24.5168	32.8042	0.506362	1.02563	10.1473	-1
96.3	164.909	Inf	0.000961183	24.4949	24.4896	24.5002	32.8031	0.506528	1.05813	10.1476	-1
96.75	165.168	Inf	0.00096566	24.4947	24.4677	24.5217	32.8024	0.506899	1.06038	10.1466	-1
97.2	165.103	Inf	0.00097017	24.4923	24.4782	24.5064	32.8024	0.506154	1.00655	10.1473	-1
97.65	165.032	Inf	0.000974666	24.519	24.4942	24.5439	32.8025	0.506416	0.928307	10.1466	-1
98.1	165.159	Inf	0.000979166	24.487	24.4798	24.4943	32.8025	0.506569	0.949457	10.1469	-1
98.55	165.246	Inf	0.000983626	24.4979	24.4796	24.5163	32.8038	0.505935	0.968914	10.147	-1
99	165.15	Inf	0.000988169	24.5112	24.5195	24.5029	32.8021	0.506308	0.966047	10.147	-1
99.45	165.192	Inf	0.00099268	24.4974	24.4947	24.5001	32.8022	0.506239	0.977255	10.147	-1
99.9	165.205	Inf	0.000997162	24.4989	24.491	24.5068	32.8032	0.506402	0.941481	10.1472	-1
100.35	165.248	Inf	0.00100165	24.5041	24.4881	24.5202	32.8012	0.50553	0.912606	10.147	-1
100.8	165.084	Inf	0.00100616	24.5137	24.5049	24.5225	32.8025	0.506188	0.960761	10.1474	-1
101.25	165.043	Inf	0.00101065	24.5063	24.4914	24.5212	32.8027	0.506978	1.01613	10.1471	-1
101.7	165.08	Inf	0.00101515	24.5059	24.4889	24.5229	32.8031	0.504899	0.935503	10.147	-1
102.15	165.024	Inf	0.00101966	24.4919	24.4807	24.5031	32.8032	0.505757	0.880938	10.1474	-1
102.6	164.899	Inf	0.00102416	24.5148	24.5118	24.5177	32.8022	0.506013	0.885059	10.1473	-1
103.05	164.796	Inf	0.00102865	24.5022	24.4892	24.5153	32.8035	0.506691	0.955997	10.1468	-1
103.5	164.734	Inf	0.00103315	24.5066	24.5072	24.5059	32.8021	0.505226	1.01071	10.1478	-1
103.95	164.604	Inf	0.00103765	24.5201	24.4963	24.5438	32.8037	0.506078	0.968342	10.1472	-1
104.4	164.531	Inf	0.00104217	24.4941	24.4941	24.4942	32.8019	0.506248	0.958312	10.1473	-1
104.85	164.488	Inf	0.00104666	24.5257	24.5255	24.5258	32.803	0.50619	0.946937	10.1473	-1
105.3	164.263	Inf	0.00105114	24.4982	24.4636	24.5328	32.8038	0.505324	0.989412	10.147	-1
105.75	164.205	Inf	0.00105565	24.4928	24.481	24.5046	32.8037	0.506519	1.01688	10.1476	-1
106.2	164.206	Inf	0.00106017	24.5001	24.4898	24.5103	32.804	0.506345	1.02782	10.1472	-1
106.65	163.958	Inf	0.00106466	24.5011	24.4945	24.5077	32.8039	0.506488	0.977438	10.1473	-1
107.1	163.847	Inf	0.00106913	24.4976	24.4723	24.523	32.8045	0.505859	0.919041	10.1474	-1
107.55	163.591	Inf	0.00107365	24.4853	24.4607	24.51	32.8042	0.504666	0.928366	10.1468	-1
108	163.562	Inf	0.0010781	24.5035	24.4878	24.5193	32.8037	0.507013	0.994037	10.1473	-1
108.45	163.204	Inf	0.0010826	24.5102	24.5067	24.5138	32.8057	0.508007	0.997731	10.1474	-1
108.9	163.078	Inf	0.0010871	24.5039	24.4925	24.5153	32.8024	0.50455	0.991338	10.1475	-1
109.35	162.907	Inf	0.00109162	24.4931	24.4766	24.5097	32.8041	0.506009	0.953691	10.1474	-1
109.8	162.905	Inf	0.00109608	24.4853	24.4682	24.5023	32.8027	0.506164	0.973235	10.1472	-1
110.25	162.536	Inf	0.00110058	24.4979	24.4877	24.5081	32.8048	0.505612	0.981689	10.1471	-1
110.7	162.381	Inf	0.00110508	24.5054	24.5021	24.5087	32.8032	0.506086	1.08476	10.1472	-1
111.15	162.268	Inf	0.00110958	24.5073	24.4782	24.5365	32.8023	0.506514	1.03226	10.1471	-1
111.6	161.967	Inf	0.00111408	24.4995	24.4881	24.5109	32.8045	0.505638	1.02939	10.1471	-1
112.05	161.86	Inf	0.00111858	24.4931	24.4854	24.5009	32.804	0.505197	1.00766	10.1476	-1
112.5	161.587	Inf	0.00112309	24.5125	24.5076	24.5173	32.8058	0.506426	1.08034	10.1468	-1
112.95	161.368	Inf	0.00112758	24.5192	24.5182	24.5203	32.802	0.506154	1.12028	10.1474	-1
113.4	161.209	Inf	0.00113207	24.5057	24.4745	24.5368	32.8036	0.506431	1.14133	10.1473	-1
113.85	161.022	Inf	0.00113659	24.4985	24.489	24.508	32.8025	0.50611	1.07467	10.147	-1
114.3	160.772	Inf	0.00114107	24.4939	24.4933	24.4944	32.8031	0.506057	1.09343	10.1473	-1
114.75	160.422	Inf	0.00114556	24.5153	24.5197	24.5109	32.8038	0.506554	1.10145	10.1469	-1
115.2	160.207	Inf	0.00115006	24.5032	24.4835	24.5229	32.8041	0.506486	1.13143	10.1471	-1
115.65	160.197	Inf	0.00115459	24.4972	24.4907	24.5037	32.8043	0.506987	1.14407	10.1472	-1
116.1	159.956	Inf	0.00115909	24.4961	24.4759	24.5164	32.8042	0.506032	1.10985	10.1475	-1
116.55	159.681	Inf	0.00116357	24.5143	24.4996	24.529	32.8035	0.505444	1.03428	10.1471	-1
117	159.461	Inf	0.00116807	24.4973	24.4743	24.5202	32.8032	0.506309	1.07016	10.1471	-1
117.45	159.314	Inf	0.00117257	24.4935	24.473	24.514	32.8039	0.505182	1.11178	10.1469	-1
117.9	159.041	Inf	0.0011771	24.5084	24.5	24.5169	32.8036	0.506499	1.14706	10.1466	-1
118.35	158.781	Inf	0.00118158	24.4942	24.4807	24.5077	32.8043	0.504877	1.12951	10.147	-1
118.8	158.513	Inf	0.00118607	24.5062	24.4952	24.5171	32.8049	0.50606	1.0911	10.1472	-1
119.25	158.395	Inf	0.00119057	24.5102	24.5025	24.5179	32.8027	0.506505	1.09882	10.147	-1
119.7	158.101	Inf	0.00119506	24.5067	24.4858	24.5277	32.8024	0.506905	1.15613	10.1473	-1
120.15	157.975	Inf	0.00119956	24.5103	24.5058	24.5148	32.8036	0.505509	1.17131	10.1472	-1
120.6	157.693	Inf	0.00120406	24.4854	24.4619	24.509	32.8031	0.506355	1.17966	10.1478	-1
121.05	157.46	Inf	0.00120854	24.5092	24.4867	24.5316	32.8024	0.505355	1.14281	10.1471	-1
121.5	157.154	Inf	0.00121305	24.5137	24.4884	24.5391	32.8039	0.505564	1.09524	10.147	-1
121.95	157.006	Inf	0.00121755	24.4935	24.4793	24.5077	32.8035	0.50684	1.13161	10.1473	-1
122.4	156.703	Inf	0.00122204	24.5045	24.5011	24.5079	32.8033	0.506758	1.18017	10.1471	-1
122.85	156.545	Inf	0.00122655	24.4918	24.4809	24.5027	32.8033	0.506715	1.20035	10.1473	-1
123.3	156.367	Inf	0.00123105	24.4991	24.4826	24.5156	32.8027	0.505137	1.16958	10.1472	-1
123.75	156.064	Inf	0.00123555	24.4893	24.4699	24.5088	32.8045	0.507124	1.12462	10.1472	-1
124.2	155.923	Inf	0.00124006	24.5021	24.4942	24.51	32.8047	0.506792	1.09812	10.1469	-1
124.65	155.681	Inf	0.00124457	24.5062	24.4861	24.5263	32.8027	0.506351	1.13702	10.147	-1
125.1	155.415	Inf	0.00124907	24.4859	24.4674	24.5044	32.8035	0.507135	1.15185	10.1468	-1
125.55	155.21	Inf	0.00125357	24.4965	24.479	24.5139	32.8041	0.506759	1.08411	10.1472	-1
126	154.984	Inf	0.00125805	24.5053	24.503	24.5077	32.8047	0.505573	1.0427	10.1472	-1
126.45	154.849	Inf	0.00126261	24.5061	24.4952	24.5169	32.804	0.505903	1.00225	10.1472	-1
126.9	154.561	Inf	0.0012671	24.4939	24.4804	24.5074	32.8052	0.507516	1.0317	10.147	-1
127.35	154.405	Inf	0.00127159	24.5089	24.5131	24.5047	32.803	0.505887	1.03363	10.1474	-1
127.8	154.144	Inf	0.00127607	24.5006	24.4905	24.5106	32.804	0.505957	1.00318	10.1473	-1
128.25	154.04	Inf	0.0012806	24.4959	24.4862	24.5056	32.804	0.505534	0.946414	10.1471	-1
128.7	153.81	Inf	0.0012851	24.5044	24.4886	24.5202	32.8044	0.505719	0.935519	10.1476	-1
129.15	153.54	Inf	0.00128959	24.4954	24.4779	24.5128	32.8044	0.506139	0.964077	10.1473	-1
129.6	153.372	Inf	0.0012941	24.4988	24.4854	24.5122	32.8035	0.50604	0.967582	10.1473	-1
130.05	153.224	Inf	0.0012986	24.5068	24.4843	24.5293	32.8034	0.505778	0.943263	10.147	-1
130.5	153.025	Inf	0.00130311	24.5024	24.4881	24.5168	32.8045	0.505887	0.903926	10.1469	-1
130.95	152.813	Inf	0.00130757	24.5101	24.4958	24.5244	32.8033	0.506736	0.893094	10.1471	-1
131.4	152.642	Inf	0.00131208	24.496	24.4863	24.5058	32.8045	0.505845	0.898393	10.1472	-1
131.85	152.523	Inf	0.00131657	24.5096	24.5036	24.5157	32.8048	0.506853	0.898787	10.1473	-1
132.3	152.225	Inf	0.00132111	24.5007	24.4861	24.5152	32.8034	0.505096	0.958237	10.147	-1
132.75	152.074	Inf	0.00132559	24.4944	24.4783	24.5104	32.8037	0.506709	0.917236	10.1472	-1
133.2	151.882	Inf	0.00133008	24.5098	24.4986	24.521	32.8036	0.50715	0.869262	10.1471	-1
133.65	151.719	Inf	0.00133458	24.4995	24.4888	24.5102	32.8034	0.50585	0.882442	10.1474	-1
134.1	151.545	Inf	0.0013391	24.4915	24.4779	24.5051	32.8044	0.505963	0.9051	10.1469	-1
134.55	151.395	Inf	0.00134359	24.5028	24.4983	24.5074	32.8028	0.506415	0.930484	10.1471	-1
135	151.201	Inf	0.0013481	24.4877	24.4805	24.4949	32.8033	0.506091	0.933597	10.147	-1
135.45	151.042	Inf	0.00135258	24.5077	24.4929	24.5225	32.8043	0.505726	0.94543	10.1469	-1
135.9	150.945	Inf	0.00135709	24.4895	24.4748	24.5043	32.8043	0.50619	0.88748	10.1472	-1
136.35	150.721	Inf	0.00136157	24.5035	24.4983	24.5087	32.8042	0.505856	0.940411	10.1471	-1
136.8	150.646	Inf	0.00136607	24.4944	24.4832	24.5056	32.8046	0.506872	1.05397	10.1476	-1
137.25	150.45	Inf	0.00137058	24.4995	24.4962	24.5027	32.8039	0.506722	1.05376	10.1474	-1
137.7	150.29	Inf	0.00137509	24.4903	24.472	24.5086	32.8041	0.505896	0.972207	10.1474	-1
138.15	150.206	Inf	0.00137956	24.4955	24.4825	24.5085	32.8048	0.506826	0.981071	10.1472	-1
138.6	150.081	Inf	0.00138407	24.5041	24.4921	24.5161	32.8043	0.506787	1.04241	10.1469	-1
139.05	149.956	Inf	0.00138858	24.4931	24.4865	24.4997	32.8054	0.506695	1.11004	10.1469	-1
139.5	149.797	Inf	0.00139309	24.5016	24.4712	24.5321	32.8036	0.505331	1.09622	10.1463	-1
139.95	149.644	Inf	0.00139759	24.4961	24.4781	24.5141	32.8051	0.506376	1.0611	10.1471	-1
140.4	149.487	Inf	0.0014021	24.4919	24.4689	24.5149	32.8051	0.507079	1.01009	10.1468	-1
140.85	149.359	Inf	0.00140656	24.4912	24.4841	24.4983	32.8052	0.505605	1.03005	10.1472	-1
141.3	149.175	Inf	0.00141105	24.5032	24.4848	24.5217	32.8045	0.50648	1.01875	10.1472	-1
141.75	149.129	Inf	0.00141559	24.5134	24.5052	24.5216	32.8048	0.506365	0.972513	10.1471	-1
142.2	149.052	Inf	0.00142008	24.4986	24.4697	24.5275	32.804	0.506833	0.965939	10.147	-1
142.65	148.88	Inf	0.00142455	24.5064	24.4931	24.5198	32.8035	0.506317	0.945152	10.1472	-1
143.1	148.874	Inf	0.00142908	24.5068	24.495	24.5186	32.8041	0.506272	0.930664	10.147	-1
143.55	148.672	Inf	0.00143357	24.5011	24.4879	24.5142	32.804	0.505708	0.96047	10.1472	-1
144	148.707	Inf	0.00143804	24.5088	24.4938	24.5238	32.8044	0.505766	1.04069	10.147	-1
144.45	148.493	Inf	0.00144256	24.4943	24.472	24.5166	32.8044	0.506099	1.05647	10.1471	-1
144.9	148.474	Inf	0.00144707	24.5021	24.4893	24.515	32.8034	0.506732	1.08872	10.147	-1
145.35	148.246	Inf	0.00145157	24.5042	24.484	24.5244	32.8049	0.506253	1.06374	10.1471	-1
145.8	148.272	Inf	0.00145605	24.5026	24.4776	24.5276	32.8042	0.505163	1.14324	10.147	-1
146.25	148.089	Inf	0.00146054	24.5043	24.4858	24.5227	32.8051	0.506155	1.21966	10.1471	-1
146.7	148.083	Inf	0.00146508	24.5009	24.4871	24.5147	32.8046	0.506956	1.21043	10.1475	-1
147.15	147.937	Inf	0.00146958	24.5097	24.5019	24.5175	32.8057	0.505078	1.17464	10.1475	-1
147.6	147.921	Inf	0.00147406	24.5072	24.4832	24.5311	32.8053	0.507182	1.13411	10.1473	-1
148.05	147.797	Inf	0.00147856	24.4919	24.4801	24.5038	32.805	0.506751	1.14885	10.1471	-1
148.5	147.783	Inf	0.00148305	24.5015	24.4979	24.505	32.8036	0.506187	1.1874	10.147	-1
148.95	147.639	Inf	0.00148757	24.4894	24.4755	24.5034	32.8033	0.506594	1.19654	10.1471	-1
149.4	147.474	Inf	0.00149208	24.5007	24.4848	24.5165	32.805	0.506707	1.21928	10.1467	-1
149.85	147.524	Inf	0.00149657	24.4911	24.4754	24.5068	32.8068	0.506303	1.14432	10.1472	-1
150.3	147.396	Inf	0.00150103	24.5052	24.4921	24.5184	32.8051	0.507262	1.17939	10.1473	-1
150.75	147.334	Inf	0.00150552	24.4894	24.4831	24.4957	32.8051	0.506683	1.25662	10.1466	-1
151.2	147.334	Inf	0.00151006	24.5001	24.4982	24.502	32.8057	0.506689	1.40734	10.1472	-1
151.65	147.287	Inf	0.00151457	24.5077	24.4807	24.5348	32.8031	0.505921	1.39196	10.1472	-1
152.1	147.191	Inf	0.00151905	24.495	24.4817	24.5082	32.8044	0.507282	1.29347	10.1473	-1
152.55	147.253	Inf	0.00152356	24.4934	24.482	24.5049	32.8049	0.506961	1.32119	10.1474	-1
153	147.168	Inf	0.00152804	24.487	24.4705	24.5036	32.8047	0.506967	1.35893	10.147	-1
153.45	147.116	Inf	0.00153254	24.4859	24.4821	24.4897	32.806	0.506201	1.35978	10.147	-1
153.9	147.031	Inf	0.00153707	24.5077	24.4932	24.5221	32.8053	0.507334	1.38821	10.1472	-1
154.35	146.99	Inf	0.00154155	24.4879	24.4689	24.507	32.8034	0.506375	1.37275	10.1474	-1
154.8	146.904	Inf	0.00154604	24.5064	24.4856	24.5271	32.8046	0.506541	1.39727	10.1467	-1
155.25	146.778	Inf	0.00155052	24.4968	24.4838	24.5099	32.8055	0.506289	1.53425	10.1471	-1
155.7	146.787	Inf	0.00155501	24.5115	24.5007	24.5222	32.8043	0.506012	1.68	10.1468	-1
156.15	146.745	Inf	0.00155951	24.5163	24.5155	24.517	32.8042	0.506474	1.79023	10.147	-1
156.6	146.653	Inf	0.00156403	24.5042	24.4865	24.5219	32.8051	0.506125	1.8497	10.147	-1
157.05	146.585	Inf	0.00156856	24.5007	24.4886	24.5129	32.8041	0.506369	1.79327	10.147	-1
157.5	146.445	Inf	0.00157302	24.4914	24.4755	24.5073	32.8058	0.506279	1.81401	10.147	-1
157.95	146.414	Inf	0.00157756	24.5059	24.4907	24.5212	32.8049	0.507272	1.8019	10.1471	-1
158.4	146.428	Inf	0.00158204	24.5076	24.4985	24.5167	32.8042	0.506027	1.83973	10.1471	-1
158.85	146.391	Inf	0.00158655	24.4807	24.4815	24.4798	32.8033	0.506369	1.77095	10.1469	-1
159.3	146.278	Inf	0.00159105	24.495	24.4875	24.5024	32.8054	0.506337	1.75872	10.1476	-1
159.75	146.255	Inf	0.00159553	24.4959	24.4825	24.5093	32.8016	0.506764	1.7702	10.1471	-1
160.2	146.189	Inf	0.00160006	24.5128	24.5008	24.5249	32.8061	0.506583	1.87613	10.1472	-1
160.65	146.164	Inf	0.00160453	24.4976	24.4781	24.5171	32.8046	0.506453	1.98492	10.1471	-1
161.1	146.193	Inf	0.00160906	24.4955	24.4947	24.4963	32.8048	0.506942	1.93448	10.1469	-1
161.55	146.06	Inf	0.00161355	24.4819	24.459	24.5048	32.8046	0.506133	1.91251	10.147	-1
162	145.986	Inf	0.00161803	24.5142	24.4906	24.5378	32.8055	0.507527	1.85724	10.1473	-1
162.45	146.035	Inf	0.00162254	24.4902	24.4909	24.4895	32.8058	0.507459	1.87848	10.147	-1
162.9	145.927	Inf	0.00162702	24.489	24.4795	24.4985	32.8039	0.506298	1.90592	10.1472	-1
163.35	145.834	Inf	0.00163155	24.4947	24.473	24.5164	32.8059	0.506295	1.83032	10.147	-1
163.8	145.724	Inf	0.00163605	24.5002	24.4884	24.512	32.8043	0.50676	1.81739	10.1472	-1
164.25	145.807	Inf	0.00164054	24.5013	24.4931	24.5094	32.8056	0.506099	1.81313	10.1473	-1
164.7	145.722	Inf	0.00164502	24.4874	24.4785	24.4962	32.8034	0.507028	1.90376	10.1469	-1
165.15	145.673	Inf	0.00164952	24.4786	24.4693	24.4879	32.8051	0.505773	1.91748	10.1473	-1
165.6	145.596	Inf	0.00165402	24.5038	24.5036	24.5039	32.8052	0.507582	1.97762	10.1468	-1
166.05	145.623	Inf	0.00165854	24.4835	24.4727	24.4944	32.8059	0.506709	1.95988	10.1471	-1
166.5	145.649	Inf	0.00166304	24.4943	24.4812	24.5074	32.8044	0.506569	1.87491	10.1471	-1
166.95	145.597	Inf	0.00166751	24.5063	24.4846	24.528	32.8057	0.505745	1.88608	10.1472	-1
167.4	145.611	Inf	0.00167201	24.498	24.4886	24.5075	32.8056	0.508437	1.9013	10.147	-1
167.85	145.499	Inf	0.00167654	24.4908	24.4721	24.5095	32.8076	0.506701	1.86491	10.1469	-1
168.3	145.451	Inf	0.00168104	24.486	24.4734	24.4986	32.8049	0.507631	1.82536	10.1468	-1
168.75	145.546	Inf	0.00168551	24.5075	24.4979	24.5171	32.8038	0.506929	1.81175	10.147	-1
169.2	145.497	Inf	0.00169001	24.5053	24.493	24.5176	32.8053	0.507148	1.80337	10.1475	-1
169.65	145.48	Inf	0.00169451	24.5051	24.4846	24.5256	32.8049	0.507063	1.85538	10.147	-1
170.1	145.509	Inf	0.00169902	24.5042	24.4818	24.5266	32.8041	0.50698	1.99376	10.1471	-1
170.55	145.513	Inf	0.00170352	24.4954	24.4817	24.509	32.8053	0.505695	1.99792	10.1472	-1
171	145.413	Inf	0.00170803	24.4985	24.495	24.502	32.8056	0.506124	1.95684	10.1471	-1
171.45	145.423	Inf	0.00171252	24.4899	24.4788	24.501	32.8052	0.505767	1.99235	10.1471	-1
171.9	145.36	Inf	0.00171701	24.5183	24.4975	24.5391	32.805	0.507002	1.97195	10.1468	-1
172.35	145.469	Inf	0.00172151	24.5096	24.4917	24.5275	32.8056	0.507147	2.0023	10.1472	-1
172.8	145.384	Inf	0.00172602	24.4795	24.4774	24.4816	32.8055	0.507536	1.97	10.1473	-1
173.25	145.38	Inf	0.00173052	24.5039	24.4953	24.5126	32.8049	0.506985	1.91688	10.147	-1
173.7	145.496	Inf	0.00173502	24.5007	24.4968	24.5046	32.8038	0.507428	1.87777	10.1469	-1
174.15	145.394	Inf	0.00173951	24.4984	24.478	24.5189	32.8038	0.507257	1.84327	10.147	-1
174.6	145.369	Inf	0.00174401	24.4811	24.4721	24.49	32.804	0.507057	1.89176	10.1471	-1
175.05	145.354	Inf	0.00174852	24.4914	24.4629	24.5198	32.8062	0.507298	1.87359	10.1471	-1
175.5	145.417	Inf	0.001753	24.5112	24.4841	24.5384	32.8039	0.506723	1.82062	10.1468	-1
175.95	145.472	Inf	0.00175748	24.4992	24.4844	24.514	32.8053	0.507825	1.72089	10.1474	-1
176.4	145.348	Inf	0.00176202	24.5047	24.4975	24.5118	32.8038	0.50713	1.69279	10.1473	-1
176.85	145.293	Inf	0.0017665	24.493	24.4747	24.5114	32.8069	0.507164	1.75307	10.147	-1
177.3	145.488	Inf	0.00177096	24.4995	24.4844	24.5146	32.8054	0.50761	1.7907	10.1474	-1
177.75	145.443	Inf	0.00177549	24.5036	24.4952	24.512	32.8038	0.506533	1.82754	10.1464	-1
178.2	145.414	Inf	0.00178002	24.4991	24.4986	24.4996	32.8044	0.507345	1.73964	10.1471	-1
178.65	145.417	Inf	0.00178452	24.5182	24.5051	24.5312	32.8038	0.506194	1.71925	10.1473	-1
179.1	145.508	Inf	0.00178897	24.4958	24.4798	24.5118	32.8041	0.507068	1.74446	10.1473	-1
179.55	145.446	Inf	0.0017935	24.5111	24.5028	24.5194	32.8056	0.506714	1.81838	10.1469	-1
180	145.622	Inf	0.00179799	24.5004	24.4929	24.5079	32.8061	0.505645	1.83641	10.147	-1
180.45	145.691	Inf	0.00180247	24.483	24.4723	24.4936	32.8046	0.50736	1.83119	10.1472	-1
180.9	145.687	Inf	0.00180701	24.4953	24.4886	24.502	32.8047	0.507794	1.77583	10.1473	-1
181.35	145.793	Inf	0.0018115	24.5003	24.4969	24.5036	32.8058	0.508112	1.79494	10.1474	-1
181.8	145.762	Inf	0.00181599	24.4959	24.4887	24.5032	32.8062	0.506589	1.8268	10.1475	-1
182.25	145.765	Inf	0.00182046	24.4967	24.4878	24.5057	32.8048	0.506537	1.79189	10.1472	-1
182.7	145.752	Inf	0.00182502	24.4848	24.4823	24.4873	32.8056	0.507289	1.74691	10.1472	-1
183.15	145.65	Inf	0.00182949	24.492	24.4811	24.5029	32.8063	0.507486	1.75147	10.1473	-1
183.6	145.869	Inf	0.00183398	24.4844	24.4813	24.4874	32.8043	0.507628	1.77651	10.1474	-1
184.05	145.871	Inf	0.00183844	24.4864	24.4694	24.5034	32.8052	0.5082	1.84483	10.1473	-1
184.5	145.96	Inf	0.00184296	24.4899	24.4862	24.4937	32.8058	0.5074	1.91913	10.1471	-1
184.95	145.866	Inf	0.00184748	24.4896	24.4875	24.4917	32.8048	0.506128	1.90913	10.1471	-1
185.4	145.973	Inf	0.00185199	24.4894	24.4821	24.4966	32.8047	0.507321	1.90532	10.1475	-1
185.85	146.027	Inf	0.00185643	24.4923	24.4736	24.5109	32.8055	0.506982	1.94852	10.1474	-1
186.3	145.977	Inf	0.00186098	24.5079	24.49	24.5258	32.8034	0.507749	1.90526	10.1472	-1
186.75	146.008	Inf	0.00186548	24.4894	24.4806	24.4983	32.8052	0.507748	1.94535	10.1479	-1
187.2	146.027	Inf	0.00187	24.5086	24.4918	24.5254	32.8044	0.507311	1.92486	10.1478	-1
187.65	146.155	Inf	0.0018745	24.5029	24.4764	24.5293	32.8051	0.507219	1.8481	10.1473	-1
188.1	146.231	Inf	0.00187899	24.5051	24.4941	24.5161	32.8049	0.5076	1.80829	10.1476	-1
188.55	146.163	Inf	0.00188347	24.5176	24.4968	24.5384	32.8042	0.507066	1.81328	10.1478	-1
189	146.173	Inf	0.00188796	24.493	24.4881	24.4979	32.8043	0.507853	1.89321	10.1476	-1
189.45	146.192	Inf	0.00189247	24.5065	24.4865	24.5266	32.805	0.507498	1.8748	10.1476	-1
189.9	146.143	Inf	0.00189699	24.4833	24.4806	24.486	32.8042	0.508101	1.86539	10.147	-1
190.35	146.353	Inf	0.00190145	24.4907	24.4892	24.4922	32.8057	0.508067	1.79791	10.1472	-1
190.8	146.338	Inf	0.00190598	24.4916	24.478	24.5053	32.8049	0.50687	1.80642	10.1472	-1
191.25	146.29	Inf	0.00191048	24.4849	24.4656	24.5041	32.8051	0.507859	1.80408	10.1474	-1
191.7	146.367	Inf	0.00191499	24.501	24.4801	24.5219	32.8055	0.508719	1.7821	10.1476	-1
192.15	146.295	Inf	0.00191946	24.4855	24.4805	24.4906	32.8066	0.508038	1.73228	10.1475	-1
192.6	146.505	Inf	0.00192396	24.4954	24.4774	24.5133	32.8055	0.508694	1.68678	10.1471	-1
193.05	146.414	Inf	0.00192848	24.4782	24.4679	24.4885	32.8053	0.507134	1.62467	10.1472	-1
193.5	146.459	Inf	0.00193296	24.4894	24.4652	24.5137	32.8058	0.50787	1.75285	10.1468	-1
193.95	146.477	Inf	0.00193743	24.4976	24.4884	24.5068	32.8072	0.508499	1.77292	10.1471	-1
194.4	146.434	Inf	0.00194198	24.4917	24.4869	24.4966	32.8051	0.507628	1.83276	10.1476	-1
194.85	146.534	Inf	0.00194646	24.4953	24.4739	24.5166	32.8035	0.507143	1.7912	10.1471	-1
195.3	146.542	Inf	0.00195096	24.4885	24.4933	24.4838	32.8065	0.506867	1.7466	10.1471	-1
195.75	146.516	Inf	0.00195544	24.4839	24.4723	24.4955	32.8051	0.507095	1.81161	10.1475	-1
196.2	146.636	Inf	0.00195994	24.4962	24.4732	24.5192	32.8051	0.506517	1.82366	10.1474	-1
196.65	146.746	Inf	0.00196447	24.4926	24.4829	24.5023	32.8038	0.507431	1.82335	10.1472	-1
197.1	146.619	Inf	0.00196894	24.5166	24.5035	24.5297	32.8053	0.507788	1.79125	10.147	-1
197.55	146.743	Inf	0.0019734	24.4905	24.4911	24.4898	32.806	0.50688	1.68886	10.1478	-1
198	146.674	Inf	0.00197792	24.4877	24.4816	24.4937	32.8051	0.508359	1.68473	10.1474	-1
198.45	146.785	Inf	0.00198239	24.5023	24.4907	24.5139	32.8066	0.507148	1.73712	10.1471	-1
198.9	146.827	Inf	0.00198689	24.5202	24.5037	24.5367	32.8044	0.508893	1.75504	10.1475	-1
199.35	146.777	Inf	0.0019914	24.5139	24.4991	24.5287	32.8052	0.507293	1.71927	10.1468	-1
199.8	146.847	Inf	0.0019959	24.4924	24.4813	24.5035	32.8064	0.507592	1.68122	10.1472	-1
200.25	147	Inf	0.00200039	24.5016	24.5011	24.5022	32.8066	0.507574	1.68223	10.1468	-1
200.7	146.715	Inf	0.00200489	24.4918	24.4883	24.4953	32.8058	0.507532	1.68119	10.1477	-1
201.15	147.018	Inf	0.0020094	24.4955	24.4844	24.5066	32.8065	0.50932	1.71797	10.1471	-1
201.6	146.921	Inf	0.00201391	24.5029	24.4909	24.515	32.8048	0.505982	1.67201	10.1474	-1
202.05	146.929	Inf	0.00201841	24.4771	24.4737	24.4806	32.8065	0.508307	1.64233	10.1473	-1
202.5	146.948	Inf	0.00202288	24.5103	24.4897	24.5308	32.8036	0.507684	1.66277	10.1475	-1
202.95	146.995	Inf	0.00202738	24.4973	24.4859	24.5087	32.8055	0.507587	1.69059	10.1475	-1
203.4	147.112	Inf	0.0020319	24.4859	24.4826	24.4892	32.8058	0.507758	1.72393	10.1471	-1
203.85	146.97	Inf	0.00203641	24.4866	24.4795	24.4936	32.8045	0.508926	1.72058	10.1473	-1
204.3	147.019	Inf	0.00204094	24.4929	24.482	24.5038	32.8061	0.507163	1.67849	10.1473	-1
204.75	147.064	Inf	0.0020454	24.4988	24.4771	24.5205	32.8053	0.508471	1.65877	10.1474	-1
205.2	147.166	Inf	0.00204986	24.4983	24.4835	24.5131	32.8067	0.507607	1.7163	10.1472	-1
205.65	147.136	Inf	0.0020544	24.5011	24.4972	24.5049	32.8055	0.508458	1.75427	10.1472	-1
206.1	147.26	Inf	0.00205892	24.4877	24.4582	24.5172	32.8045	0.508329	1.77624	10.147	-1
206.55	147.239	Inf	0.00206341	24.4959	24.4801	24.5117	32.8058	0.507894	1.743	10.147	-1
207	147.258	Inf	0.00206788	24.4832	24.4815	24.4849	32.8045	0.508278	1.72132	10.1471	-1
207.45	147.315	Inf	0.00207236	24.4862	24.4772	24.4952	32.8049	0.507497	1.70993	10.1474	-1
207.9	147.451	Inf	0.00207692	24.5142	24.5006	24.5278	32.8052	0.508381	1.73078	10.1472	-1
208.35	147.386	Inf	0.0020814	24.492	24.4865	24.4976	32.8041	0.508442	1.76745	10.1471	-1
208.8	147.524	Inf	0.00208591	24.5091	24.4976	24.5207	32.8045	0.507748	1.73273	10.147	-1
209.25	147.549	Inf	0.00209036	24.4831	24.4698	24.4965	32.8064	0.507235	1.70035	10.147	-1
209.7	147.535	Inf	0.00209489	24.4916	24.473	24.5102	32.8058	0.508458	1.64674	10.1474	-1
210.15	147.603	Inf	0.00209937	24.5078	24.5044	24.5113	32.8052	0.507684	1.65053	10.1473	-1
210.6	147.655	Inf	0.00210386	24.4934	24.4851	24.5017	32.8062	0.508519	1.7018	10.147	-1
211.05	147.698	Inf	0.00210837	24.4943	24.4827	24.5059	32.8052	0.507923	1.71972	10.1474	-1
211.5	147.721	Inf	0.00211286	24.4926	24.4805	24.5046	32.8059	0.508198	1.65655	10.1471	-1
211.95	147.652	Inf	0.00211737	24.4912	24.4762	24.5062	32.8054	0.507952	1.637	10.1469	-1
212.4	147.815	Inf	0.00212186	24.5011	24.493	24.5093	32.8064	0.507882	1.62748	10.147	-1
212.85	147.826	Inf	0.00212636	24.4935	24.4722	24.5148	32.8063	0.50786	1.72627	10.1473	-1
213.3	147.947	Inf	0.00213086	24.5013	24.491	24.5116	32.8058	0.506974	1.73764	10.1471	-1
213.75	147.977	Inf	0.00213537	24.4962	24.4768	24.5156	32.8043	0.507949	1.69137	10.1474	-1
214.2	148.005	Inf	0.00213989	24.5025	24.4843	24.5207	32.8051	0.50756	1.59565	10.1474	-1
214.65	147.966	Inf	0.00214436	24.5005	24.4872	24.5137	32.805	0.507652	1.56731	10.1472	-1
215.1	148.039	Inf	0.00214888	24.4906	24.4818	24.4994	32.8061	0.508104	1.59613	10.1474	-1
215.55	148.118	Inf	0.00215337	24.4919	24.4878	24.496	32.8051	0.506901	1.57388	10.1476	-1
216	148.16	Inf	0.0021579	24.4959	24.4838	24.5081	32.8061	0.50847	1.53369	10.1471	-1
216.45	148.203	Inf	0.00216235	24.5009	24.4911	24.5107	32.8045	0.508256	1.45233	10.1471	-1
216.9	148.304	Inf	0.00216689	24.4926	24.4877	24.4975	32.8055	0.507921	1.43548	10.147	-1
217.35	148.29	Inf	0.00217135	24.493	24.4762	24.5098	32.8064	0.507925	1.47147	10.1472	-1
217.8	148.324	Inf	0.00217586	24.4975	24.4827	24.5124	32.8069	0.507497	1.46818	10.1474	-1
218.25	148.353	Inf	0.00218041	24.4889	24.4733	24.5045	32.8053	0.507907	1.50146	10.1472	-1
218.7	148.45	Inf	0.00218488	24.5115	24.4984	24.5245	32.8051	0.50801	1.46223	10.1472	-1
219.15	148.544	Inf	0.00218939	24.5	24.4801	24.52	32.8059	0.508099	1.46955	10.1473	-1
219.6	148.542	Inf	0.00219391	24.4898	24.4665	24.513	32.8062	0.507592	1.45149	10.1473	-1
220.05	148.552	Inf	0.00219839	24.4822	24.4678	24.4965	32.8053	0.507791	1.48277	10.1471	-1
220.5	148.634	Inf	0.00220292	24.4988	24.4888	24.5088	32.8046	0.507222	1.40785	10.1471	-1
220.95	148.604	Inf	0.00220743	24.4953	24.481	24.5096	32.8055	0.507369	1.36794	10.147	-1
221.4	148.701	Inf	0.00221191	24.5047	24.4885	24.5209	32.8046	0.507539	1.32396	10.147	-1
221.85	148.788	Inf	0.00221639	24.5076	24.4968	24.5184	32.806	0.507357	1.34857	10.1471	-1
222.3	148.792	Inf	0.00222084	24.4965	24.4739	24.519	32.8048	0.507593	1.39611	10.1471	-1
222.75	148.728	Inf	0.00222542	24.5008	24.4978	24.5039	32.8058	0.507995	1.39419	10.1474	-1
223.2	148.961	Inf	0.0022299	24.5053	24.4935	24.5171	32.8056	0.507217	1.37105	10.1472	-1
223.65	148.952	Inf	0.0022344	24.5019	24.4861	24.5178	32.8064	0.507927	1.31496	10.1471	-1
224.1	148.942	Inf	0.00223888	24.4924	24.4869	24.4979	32.8059	0.507636	1.29562	10.1469	-1
224.55	148.977	Inf	0.0022434	24.4971	24.4919	24.5023	32.8061	0.50805	1.2833	10.1473	-1
225	148.958	Inf	0.00224791	24.4911	24.4758	24.5064	32.805	0.508336	1.28941	10.1475	-1
225.45	149.033	Inf	0.00225243	24.5057	24.4905	24.5209	32.806	0.508039	1.24954	10.1475	-1
225.9	149.038	Inf	0.00225687	24.4968	24.4816	24.5121	32.8064	0.50779	1.19293	10.1472	-1
226.35	149.123	Inf	0.00226138	24.4952	24.4854	24.505	32.8067	0.508833	1.1829	10.1472	-1
226.8	149.214	Inf	0.00226589	24.4827	24.4767	24.4888	32.8065	0.508105	1.21207	10.1474	-1
227.25	149.145	Inf	0.00227039	24.4943	24.4866	24.5019	32.8058	0.50773	1.25357	10.1474	-1
227.7	149.173	Inf	0.00227488	24.5012	24.4868	24.5156	32.8063	0.507497	1.26361	10.147	-1
228.15	149.243	Inf	0.0022794	24.4947	24.4747	24.5148	32.8059	0.507784	1.24204	10.1472	-1
228.6	149.198	Inf	0.00228387	24.4976	24.4834	24.5117	32.8054	0.50785	1.18457	10.1468	-1
229.05	149.365	Inf	0.00228839	24.486	24.4873	24.4847	32.8057	0.508013	1.18608	10.1471	-1
229.5	-4.32223	-3.96295	0.00229393	24.509	24.4904	24.5276	32.8061	0.508332	-0.142377	10.1456	-1
229.95	-4.66704	-4.34952	0.00229739	24.5008	24.4825	24.519	32.8072	0.5074	0.630996	10.1457	-1
230.4	-4.70514	-4.39007	0.00230189	24.5091	24.4957	24.5225	32.8074	0.508764	0.605448	10.1456	-1
230.85	-4.74792	-4.38069	0.00230639	24.4996	24.4978	24.5013	32.8077	0.508046	0.566386	10.1458	-1
231.3	-4.77932	-4.38813	0.00231089	24.5109	24.4963	24.5255	32.8072	0.5094	0.558095	10.1454	-1
231.75	-4.73563	-4.39881	0.00231538	24.512	24.4931	24.531	32.8068	0.508524	0.632855	10.146	-1
232.2	-4.83908	-4.37796	0.00231987	24.5033	24.4858	24.5207	32.8062	0.509006	0.618446	10.1456	-1
232.35	-4.76599	-4.41359	0.00232138	24.4966	24.4957	24.4974	32.8066	0.508429	0.667836	10.1457	-1