File: data/PrimaryData/Unknown_Resin/Tensile_test_3.csv
Displacement,Load
-5.0307e-17,-0.206812
1.25649e-06,0.253375
3.76943e-06,1.24291
6.25568e-06,2.03297
8.76071e-06,2.93609
1.12633e-05,3.75586
1.37611e-05,4.59402
1.62589e-05,5.2771
1.87928e-05,5.92975
2.12644e-05,6.68418
2.37785e-05,7.20166
2.62938e-05,7.82475
2.87793e-05,8.38169
3.12637e-05,8.9925
3.37507e-05,9.59523
3.62493e-05,10.173
3.87727e-05,10.6957
4.12602e-05,11.2296
4.37968e-05,11.6103
4.62846e-05,12.0834
4.87645e-05,12.3882
5.12644e-05,12.7984
5.37402e-05,13.0357
5.62732e-05,13.3551
5.87741e-05,13.4988
6.12482e-05,13.7627
6.37557e-05,13.9631
6.6266e-05,14.1302
6.87535e-05,14.3072
7.1252e-05,14.5259
7.37576e-05,14.7854
7.62796e-05,15.2026
7.87609e-05,15.7525
8.12668e-05,16.3646
8.37578e-05,16.8831
8.62618e-05,17.3938
8.87365e-05,17.8596
9.12551e-05,18.3674
9.37631e-05,18.8103
9.62735e-05,19.2673
9.87691e-05,19.4353
0.000101275,19.5395
0.000103746,19.7179
0.000106254,19.879
0.000108754,19.9323
0.00011125,20.0763
0.000113767,20.2377
0.000116256,20.1185
0.000118751,20.2074
0.00012125,20.2672
0.000123754,20.2422
0.000126232,20.3659
0.000128735,20.3309
0.000131242,20.4232
0.000133752,20.3113
0.000136251,20.5478
0.00013877,20.4804
0.000141249,20.3967
0.000143752,20.4179
0.000146242,20.4366
0.00014875,20.4235
0.000151236,20.4251
0.000153741,20.4912
0.000156246,20.4042
0.000158759,20.4284
0.000161246,20.527
0.000163744,20.5778
0.000166237,20.4978
0.000168754,20.4869
0.000171242,20.4344
0.000173736,20.5565
0.000176242,20.458
0.000178721,20.49
0.000181239,20.5029
0.00018375,20.6113
0.00018623,20.563
0.000188736,20.5094
0.000191252,20.4671
0.000193748,20.4821
0.000196227,20.6356
0.000198722,20.7188
0.000201213,20.7701
0.000203706,21.0051
0.000206251,21.0873
0.000208744,21.0832
0.000211233,21.2171
0.000213747,21.3211
0.000216231,21.4156
0.000218741,21.397
0.000221206,21.5658
0.000223713,21.8609
0.000226241,22.2217
0.000228711,22.4583
0.000231239,22.8172
0.000233734,23.1048
0.00023624,23.3252
0.000238742,23.6032
0.00024121,23.674
0.000243727,23.8176
0.000246207,23.9738
0.00024873,24.2193
0.000251216,24.1755
0.000253724,24.3858
0.000256233,24.3459
0.000258723,24.3518
0.000261237,24.4828
0.000263729,24.5928
0.000266227,24.6077
0.00026873,24.7585
0.000271216,24.8191
0.000273705,24.8377
0.000276213,24.9282
0.000278714,25.0126
0.000281225,25.0622
0.000283728,25.1685
0.000286217,25.2327
0.00028872,25.2806
0.0002912,25.3727
0.000293698,25.3232
0.000296214,25.3683
0.000298683,25.4584
0.000301218,25.444
0.000303718,25.4733
0.000306212,25.5767
0.000308723,25.5204
0.000311225,25.6293
0.000313721,25.5426
0.000316213,25.6362
0.000318719,25.8021
0.000321156,25.7813
0.000323715,25.8277
0.000326186,25.8386
0.000328717,25.9022
0.000331221,25.9594
0.000333715,25.9657
0.000336197,26.0044
0.000338708,26.0425
0.000341195,25.9923
0.000343678,26.151
0.000346161,26.1564
0.000348706,26.1772
0.000351216,26.2386
0.000353713,26.2638
0.000356204,26.2708
0.00035871,26.352
0.0003612,26.3448
0.000363681,26.2906
0.000366195,26.4659
0.000368693,26.3642
0.000371178,26.3775
0.000373676,26.3668
0.000376189,26.4368
0.000378708,26.3754
0.000381219,26.3309
0.000383696,26.4465
0.000386202,26.3789
0.000388657,26.4151
0.000391189,26.3653
0.000393708,26.4222
0.000396192,26.3969
0.000398697,26.3735
0.000401198,26.364
0.000403703,26.3549
0.000406191,26.2786
0.000408694,26.3046
0.00041119,26.3366
0.000413656,26.4664
0.000416195,26.337
0.000418704,26.4194
0.000421188,26.3808
0.0004237,26.4972
0.000426178,26.4006
0.000428663,26.4096
0.000431169,26.4393
0.000433685,26.3417
0.000436178,26.4858
0.00043868,26.4141
0.000441181,26.4555
0.000443668,26.4087
0.000446183,26.3934
0.000448723,26.4782
0.000451151,26.3755
0.000453693,26.4715
0.000456161,26.3518
0.000458686,26.4036
0.000461181,26.4318
0.000463614,26.4443
0.000466157,26.3815
0.000468675,26.427
0.000471171,26.3798
0.000473674,26.3728
0.00047614,26.4693
0.000478662,26.3491
0.000481174,26.3347
0.000483614,26.3273
0.000486156,26.3186
0.00048863,26.4346
0.000491129,26.3599
0.000493612,26.4491
0.000496185,26.437
0.000498664,26.3663
0.000501109,26.4746
0.000503633,26.434
0.000506109,26.526
0.000508607,26.3365
0.000511111,26.3501
0.000513596,26.3971
0.00051611,26.4357
0.000518598,26.2673
0.000521119,26.326
0.000523621,26.3909
0.000526101,26.439
0.000528609,26.3516
0.000531095,26.3542
0.000533587,26.321
0.000536075,26.3313
0.000538596,26.479
0.000541112,26.3892
0.000543604,26.4609
0.000546109,26.4528
0.000548607,26.3441
0.000551103,26.3884
0.000553596,26.3512
0.000556085,26.4478
0.000558594,26.478
0.000561085,26.4749
0.000563597,26.3864
0.000566106,26.2797
0.000568605,26.4045
0.000571124,26.4558
0.000573606,26.3525
0.000576089,26.4286
0.000578589,26.3456
0.000581078,26.4013
0.000583589,26.3719
0.00058607,26.4004
0.000588589,26.4513
0.0005911,26.4152
0.00059359,26.4261
0.000596091,26.4854
0.000598594,26.448
0.000601087,26.4084
0.00060359,26.3872
0.000606083,26.3628
0.000608586,26.333
0.000611093,26.4123
0.000613586,26.5169
0.000616081,26.3584
0.000618583,26.3768
0.000621091,26.3546
0.000623584,26.3509
0.000626054,26.392
0.000628565,26.4525
0.000631064,26.4179
0.000633585,26.3687
0.000636072,26.4633
0.000638591,26.4279
0.000641071,26.3552
0.00064358,26.438
0.000646083,26.319
0.000648575,26.4021
0.000651071,26.3267
0.00065357,26.3783
0.000656065,26.364
0.000658581,26.4574
0.000661077,26.4398
0.000663583,26.4913
0.000666068,26.3788
0.000668577,26.4585
0.000671067,26.3821
0.000673562,26.439
0.000676059,26.3812
0.00067854,26.3854
0.000681053,26.3726
0.000683559,26.3661
0.000686063,26.3674
0.000688582,26.3541
0.000691079,26.4424
0.000693571,26.4365
0.000696067,26.385
0.000698553,26.3498
0.000701064,26.3632
0.00070357,26.3738
0.000706107,26.421
0.000708589,26.4224
0.000711074,26.3975
0.000713569,26.3924
0.000716076,26.3941
0.000718604,26.3263
0.000721082,26.3796
0.000723586,26.3887
0.000726074,26.5018
0.000728607,26.4384
0.000731102,26.3258
0.000733605,26.3806
0.000736078,26.3642
0.000738629,26.394
0.000741092,26.3437
0.000743616,26.4388
0.000746049,26.3639
0.000748587,26.382
0.000751119,26.3943
0.000753572,26.4113
0.000756127,26.4269
0.000758554,26.3979
0.000761116,26.3608
0.000763587,26.3605
0.00076609,26.4067
0.0007686,26.3221
0.000771088,26.352
0.000773602,26.3861
0.000776085,26.4202
0.000778609,26.4073
0.000781117,26.4263
0.000783601,26.3652
0.000786111,26.3283
0.000788607,26.405
0.000791067,26.3808
0.000793572,26.5391
0.000796064,26.3748
0.000798596,26.362
0.000801101,26.3658
0.000803598,26.3912
0.000806113,26.2997
0.000808577,26.3588
0.000811104,26.4456
0.000813604,26.4213
0.000816086,26.3941
0.000818605,26.4447
0.000821095,26.4101
0.000823583,26.3757
0.000826096,26.4268
0.000828612,26.3902
0.000831118,26.3939
0.000833602,26.478
0.000836104,26.4099
0.000838591,26.4284
0.000841092,26.4549
0.000843598,26.487
0.000846082,26.3966
0.000848592,26.3867
0.000851097,26.3584
0.000853603,26.3593
0.000856101,26.4134
0.000858614,26.3771
0.000861084,26.4116
0.000863595,26.3104
0.000866079,26.3576
0.000868584,26.3635
0.000871097,26.3924
0.000873586,26.3763
0.00087612,26.5376
0.000878584,26.4131
0.000881091,26.4483
0.000883587,26.4264
0.00088608,26.3487
0.000888567,26.3492
0.000891087,26.4302
0.000893585,26.4186
0.000896078,26.4053
0.000898571,26.4237
0.000901115,26.3045
0.000903593,26.412
0.000906087,26.3317
0.000908598,26.4309
0.000911063,26.4251
0.000913569,26.3686
0.000916065,26.3431
0.000918566,26.4625
0.000921092,26.3961
0.000923581,26.394
0.000926089,26.4577
0.000928578,26.389
0.000931084,26.3628
0.000933569,26.5017
0.000936064,26.3963
0.00093856,26.3662
0.000941067,26.4649
0.00094358,26.4308
0.00094609,26.4198
0.000948578,26.3628
0.000951066,26.4546
0.000953567,26.4074
0.00095607,26.438
0.000958566,26.3146
0.000961075,26.4764
0.000963576,26.2804
0.000966061,26.4698
0.00096859,26.4455
0.000971071,26.3738
0.00097358,26.4087
0.000976068,26.4476
0.000978561,26.4001
0.000981073,26.4838
0.000983559,26.483
0.000986065,26.393
0.000988563,26.3662
0.00099107,26.4452
0.000993571,26.3999
0.000996064,26.3725
0.000998553,26.4616
0.00100107,26.4293
0.00100358,26.4621
0.00100608,26.4785
0.00100861,26.3688
0.00101111,26.456
0.00101355,26.399
0.00101609,26.4429
0.00101863,26.4257
0.00102111,26.3953
0.00102361,26.3748
0.00102611,26.4962
0.00102863,26.4084
0.00103111,26.5178
0.0010336,26.3959
0.00103609,26.4196
0.00103861,26.4492
0.00104111,26.5034
0.00104365,26.4367
0.00104611,26.4186
0.00104861,26.5194
0.00105113,26.4299
0.0010536,26.3706
0.0010561,26.3708
0.00105858,26.4697
0.00106111,26.4462
0.00106361,26.3792
0.00106612,26.405
0.00106862,26.3983
0.00107111,26.4229
0.00107363,26.4538
0.00107612,26.3756
0.0010786,26.4013
0.00108111,26.4123
0.00108359,26.4404
0.00108611,26.4731
0.00108858,26.3232
0.00109112,26.4152
0.0010936,26.4281
0.00109611,26.3791
0.00109861,26.4283
0.0011011,26.291
0.00110359,26.4896
0.0011061,26.3722
0.0011086,26.3757
0.00111111,26.4552
0.0011136,26.4752
0.00111612,26.4215
0.00111861,26.479
0.00112107,26.4248
0.00112359,26.3659
0.00112609,26.4293
0.00112862,26.4259
0.00113111,26.376
0.00113359,26.5032
0.0011361,26.3619
0.00113862,26.3214
0.00114109,26.3536
0.00114359,26.3752
0.00114609,26.5096
0.00114859,26.2895
0.00115108,26.4342
0.00115359,26.2887
0.00115607,26.3842
0.00115858,26.3897
0.00116111,26.4034
0.0011636,26.3146
0.00116609,26.3058
0.00116856,26.5117
0.00117108,26.4268
0.00117358,26.342
0.00117607,26.3346
0.00117858,26.4787
0.00118109,26.4436
0.00118359,26.5096
0.00118609,26.5115
0.00118858,26.3937
0.00119111,26.4788
0.00119357,26.5096
0.00119607,26.3606
0.00119859,26.4094
0.00120104,26.4989
0.00120356,26.4489
0.00120608,26.3589
0.00120856,26.4055
0.00121108,26.3873
0.00121357,26.4593
0.00121609,26.3866
0.00121855,26.345
0.00122108,26.4149
0.00122357,26.4736
0.00122605,26.4517
0.00122856,26.4447
0.00123111,26.3476
0.00123356,26.4405
0.00123606,26.4432
0.00123858,26.415
0.00124109,26.5196
0.00124358,26.3661
0.00124607,26.448
0.00124857,26.4662
0.00125105,26.3363
0.00125357,26.3705
0.00125608,26.4279
0.00125856,26.3281
0.00126107,26.4961
0.00126352,26.3656
0.00126608,26.4475
0.00126855,26.4489
0.00127107,26.4043
0.00127357,26.3027
0.00127606,26.3059
0.00127855,26.3276
0.00128105,26.6495
0.00128357,26.3804
0.00128606,26.3924
0.00128855,26.5478
0.00129106,26.5251
0.00129356,26.3399
0.00129608,26.3971
0.00129853,26.3489
0.00130106,26.4317
0.00130355,26.4391
0.00130605,26.3489
0.00130857,26.3051
0.00131107,26.4772
0.00131352,26.453
0.00131606,26.3145
0.00131854,26.3697
0.00132107,26.4054
0.00132355,26.418
0.00132604,26.4382
0.00132852,26.3822
0.00133101,26.4157
0.00133357,26.378
0.00133606,26.4128
0.00133851,26.4317
0.00134105,26.4789
0.00134348,26.3407
0.00134603,26.4852
0.00134854,26.5501
0.00135099,26.3465
0.00135356,26.4981
0.001356,26.3999
0.00135855,26.3927
0.00136103,26.4179
0.00136349,26.4588
0.00136606,26.4461
0.00136852,26.5148
0.00137104,26.4425
0.00137351,26.3985
0.00137602,26.4159
0.00137857,26.4638
0.00138098,26.3748
0.00138351,26.4368
0.00138601,26.4059
0.00138848,26.4809
0.00139097,26.4094
0.00139347,26.4418
0.00139598,26.3647
0.00139848,26.4878
0.001401,26.402
0.0014035,26.4835
0.00140599,26.4128
0.00140854,26.4409
0.00141098,26.3753
0.00141347,26.4632
0.00141598,26.4922
0.00141848,26.4455
0.00142099,26.4537
0.00142349,26.5018
0.001426,26.3831
0.00142848,26.4462
0.00143097,26.4548
0.00143347,26.4738
0.00143597,26.3857
0.00143848,26.522
0.00144098,26.4026
0.00144348,26.5082
0.00144598,26.4772
0.00144846,26.465
0.00145098,26.4124
0.00145348,26.3513
0.00145598,26.4588
0.00145846,26.4982
0.00146096,26.373
0.0014635,26.4052
0.00146596,26.4551
0.00146847,26.4492
0.00147098,26.4342
0.00147348,26.4279
0.00147597,26.4568
0.00147845,26.4219
0.00148097,26.407
0.00148347,26.4776
0.00148595,26.435
0.00148845,26.4313
0.00149095,26.4401
0.00149346,26.4503
0.00149599,26.4584
0.00149845,26.4746
0.00150094,26.395
0.00150347,26.4798
0.00150596,26.5299
0.00150848,26.4921
0.00151095,26.447
0.00151346,26.4227
0.00151595,26.5148
0.00151847,26.4144
0.00152097,26.4317
0.00152345,26.5326
0.001526,26.5648
0.00152843,26.5196
0.00153094,26.5542
0.00153345,26.4974
0.00153593,26.3944
0.00153845,26.5213
0.00154094,26.5255
0.00154345,26.4599
0.00154597,26.4192
0.00154845,26.489
0.00155094,26.4788
0.00155343,26.5501
0.00155598,26.518
0.00155843,26.4534
0.00156096,26.4489
0.00156344,26.5249
0.00156596,26.5567
0.00156846,26.504
0.00157094,26.3929
0.00157345,26.4933
0.00157594,26.4106
0.00157844,26.4925
0.00158093,26.4909
0.00158342,26.5142
0.00158593,26.5643
0.00158847,26.5336
0.00159096,26.5427
0.00159345,26.4629
0.00159596,26.5276
0.00159844,26.5341
0.00160096,26.5478
0.00160342,26.4486
0.0016059,26.5169
0.00160843,26.6133
0.00161092,26.5069
0.00161345,26.622
0.00161594,26.6194
0.00161844,26.7867
0.00162094,26.7574
0.00162342,26.8794
0.00162595,26.7601
0.00162846,26.977
0.00163093,26.9816
0.00163342,27.0868
0.00163594,27.14
0.00163844,27.1897
0.00164094,27.2403
0.00164343,27.2834
0.00164593,27.3613
0.00164846,27.4864
0.00165095,27.5025
0.00165346,27.6763
0.00165594,27.618
0.00165843,27.6792
0.00166099,27.7354
0.00166348,27.9447
0.00166599,27.9187
0.00166849,28.0444
0.00167092,28.053
0.00167347,28.2725
0.00167593,28.2535
0.00167845,28.2816
0.00168097,28.4324
0.00168345,28.5847
0.00168596,28.6614
0.00168849,28.7362
0.00169096,28.8138
0.00169348,28.9275
0.00169596,29.0499
0.00169845,29.0436
0.00170096,29.2327
0.00170343,29.3357
0.00170595,29.4154
0.00170843,29.5004
0.00171098,29.6392
0.00171346,29.7955
0.00171597,29.8532
0.00171847,30.0017
0.00172095,30.0926
0.00172344,30.2251
0.00172591,30.3542
0.00172845,30.4635
0.00173098,30.5797
0.00173345,30.748
0.00173597,30.8168
0.00173846,31.0125
0.00174099,31.098
0.00174346,31.278
0.00174596,31.4604
0.00174845,31.4728
0.00175097,31.5646
0.00175346,31.7699
0.00175594,31.8878
0.00175847,32.0267
0.00176098,32.1266
0.00176347,32.1854
0.00176597,32.4765
0.00176844,32.5271
0.00177095,32.696
0.00177347,32.8192
0.00177596,33.0176
0.00177845,33.1609
0.00178094,33.184
0.00178346,33.3702
0.00178595,33.3845
0.00178843,33.6031
0.00179094,33.6515
0.00179344,33.7407
0.00179595,33.839
0.00179845,34.0754
0.00180095,34.1237
0.00180347,34.2115
0.00180597,34.3166
0.00180845,34.4161
0.00181096,34.6556
0.00181344,34.6891
0.00181594,34.8109
0.00181843,34.9454
0.00182094,35.0161
0.00182343,35.1447
0.00182595,35.317
0.00182846,35.4311
0.00183096,35.5885
0.00183345,35.7344
0.00183595,35.8636
0.00183843,35.9945
0.00184093,36.0606
0.00184344,36.2637
0.00184593,36.3947
0.00184844,36.5534
0.00185094,36.6234
0.00185344,36.7171
0.00185597,36.8623
0.00185842,36.97
0.00186094,37.2004
0.00186342,37.3055
0.00186594,37.3586
0.00186841,37.5393
0.0018709,37.6277
0.00187343,37.7846
0.00187593,37.883
0.00187846,37.9418
0.00188093,38.1279
0.00188343,38.2336
0.00188592,38.4356
0.00188843,38.5175
0.00189091,38.713
0.00189343,38.8812
0.00189592,39.0824
0.00189843,39.2593
0.00190093,39.4167
0.00190343,39.739
0.00190592,39.8722
0.00190842,40.1114
0.00191094,40.3691
0.00191342,40.5474
0.00191593,40.8095
0.00191844,41.0373
0.00192092,41.2801
0.00192343,41.4889
0.00192591,41.8167
0.00192843,41.8719
0.00193095,42.125
0.00193341,42.4702
0.00193593,42.6018
0.00193841,42.8614
0.00194092,43.0489
0.00194342,43.3967
0.00194592,43.7083
0.00194845,43.8008
0.00195094,44.1811
0.00195343,44.3173
0.00195592,44.6805
0.00195842,44.9348
0.00196093,45.0535
0.00196341,45.4281
0.00196589,45.5967
0.00196842,45.9901
0.00197094,46.1362
0.00197342,46.485
0.00197592,46.7439
0.00197841,47.0335
0.00198091,47.2461
0.0019834,47.571
0.00198591,47.8305
0.00198841,48.1398
0.0019909,48.3976
0.00199342,48.6593
0.00199591,48.972
0.00199842,49.2688
0.0020009,49.4642
0.0020034,49.7496
0.00200588,50.0588
0.00200837,50.2701
0.00201089,50.5566
0.0020134,50.9328
0.00201591,51.148
0.00201842,51.3741
0.00202091,51.6864
0.00202342,51.9771
0.00202589,52.2978
0.00202839,52.5612
0.00203088,52.8075
0.00203338,53.1318
0.0020359,53.4487
0.0020384,53.6477
0.00204092,53.9301
0.00204343,54.1944
0.00204592,54.5713
0.0020484,54.8388
0.00205092,55.0439
0.00205342,55.3998
0.00205588,55.6953
0.00205841,55.98
0.0020609,56.2011
0.00206339,56.512
0.00206591,56.8531
0.00206841,57.0992
0.00207089,57.3829
0.00207339,57.6364
0.00207586,57.8711
0.0020784,58.101
0.00208087,58.4794
0.00208339,58.7039
0.00208589,58.9872
0.00208838,59.231
0.00209091,59.5003
0.00209342,59.8197
0.00209589,60.1817
0.00209838,60.4001
0.00210087,60.6738
0.00210339,60.9164
0.00210588,61.3238
0.00210838,61.6491
0.00211087,61.9279
0.00211338,62.2147
0.00211588,62.4283
0.0021184,62.6895
0.00212089,63.0009
0.00212339,63.2903
0.00212587,63.6162
0.00212837,63.7356
0.00213087,64.1592
0.00213338,64.3977
0.0021359,64.6174
0.0021384,64.92
0.00214089,65.2747
0.00214338,65.5529
0.00214588,65.8279
0.00214837,66.132
0.00215087,66.4571
0.00215338,66.6567
0.00215585,67.0662
0.00215836,67.3491
0.00216087,67.5273
0.00216337,67.8103
0.00216588,68.0203
0.00216838,68.4354
0.00217088,68.7605
0.00217338,69.0928
0.00217585,69.3829
0.00217835,69.6295
0.00218087,69.8656
0.00218339,70.1273
0.00218586,70.4058
0.00218836,70.6891
0.00219087,70.8859
0.00219338,71.0235
0.00219585,71.1864
0.00219835,71.3689
0.00220085,71.622
0.00220336,71.8297
0.00220584,71.9536
0.00220838,72.2223
0.00221088,72.4243
0.00221336,72.709
0.00221588,72.9292
0.00221835,73.2256
0.00222087,73.381
0.00222333,73.5813
0.00222584,73.7104
0.00222837,74.0745
0.00223085,74.2875
0.00223334,74.5936
0.00223587,74.7531
0.00223838,75.0456
0.00224086,75.2095
0.00224328,75.5699
0.00224586,75.5904
0.00224834,75.8529
0.00225085,76.0235
0.00225332,76.0791
0.00225584,76.2382
0.00225834,76.3972
0.00226087,76.6667
0.00226337,76.8604
0.00226587,77.0714
0.00226836,77.2619
0.00227087,77.471
0.00227334,77.6609
0.00227581,77.8818
0.00227837,78.188
0.00228086,78.4947
0.00228337,78.7085
0.00228585,79.0142
0.00228832,79.1609
0.00229084,79.4134
0.00229329,79.6108
0.00229583,79.875
0.00229829,80.053
0.00230086,80.2101
0.00230331,80.472
0.00230586,80.5434
0.00230836,80.7734
0.00231079,81.0431
0.00231335,81.1579
0.00231581,81.3667
0.00231829,81.5888
0.00232079,81.8058
0.00232328,81.97
0.00232583,82.2137
0.00232829,82.3659
0.0023308,82.6341
0.00233329,82.8208
0.00233578,83.0455
0.00233827,83.2677
0.00234078,83.5868
0.00234327,83.7341
0.0023458,84.0395
0.00234828,84.2061
0.00235078,84.52
0.00235329,84.6159
0.00235578,84.9088
0.00235828,85.2575
0.00236078,85.3713
0.00236328,85.6015
0.00236578,85.872
0.00236829,86.3115
0.00237077,86.6385
0.00237328,86.9733
0.0023758,86.9981
0.00237827,87.2607
0.00238079,87.659
0.00238328,87.9806
0.00238576,88.5431
0.00238826,88.8055
0.00239077,89.2519
0.00239327,89.4586
0.00239576,89.9252
0.00239827,90.2503
0.00240077,90.3398
0.00240328,90.7563
0.00240577,90.931
0.00240826,91.1585
0.00241076,91.5529
0.00241327,91.8325
0.00241573,91.9386
0.00241829,92.108
0.00242076,92.5941
0.00242327,92.811
0.00242578,92.8612
0.00242827,93.1319
0.00243075,93.3208
0.00243326,93.5733
0.00243575,93.9672
0.00243826,94.1575
0.00244073,94.3929
0.00244325,94.6986
0.00244576,95.036
0.00244827,95.2943
0.00245077,95.5904
0.00245326,95.8754
0.00245577,96.1426
0.00245827,96.4826
0.00246075,96.7811
0.00246327,96.9854
0.00246573,97.3327
0.00246826,97.6149
0.00247077,97.8183
0.00247327,98.1041
0.00247578,98.4326
0.00247826,98.5448
0.00248075,98.8798
0.00248325,99.022
0.00248574,99.2547
0.00248823,99.4841
0.00249072,99.6141
0.00249324,99.9636
0.00249575,100.138
0.00249827,100.289
0.00250073,100.586
0.00250325,100.786
0.00250574,101.087
0.00250822,101.322
0.00251074,101.63
0.00251324,101.859
0.00251574,102.182
0.00251825,102.436
0.00252074,102.54
0.00252327,102.778
0.00252574,102.984
0.00252823,103.116
0.00253073,103.238
0.00253321,103.367
0.00253574,103.522
0.00253823,103.731
0.00254074,103.858
0.00254325,104.064
0.00254575,104.34
0.00254824,104.502
0.00255073,104.67
0.00255321,105.001
0.00255572,105.368
0.00255823,105.569
0.00256073,105.825
0.00256325,106.039
0.00256575,106.318
0.00256825,106.497
0.00257074,106.764
0.00257323,106.878
0.00257575,107.011
0.00257823,107.294
0.00258071,107.611
0.00258322,107.851
0.00258574,108.04
0.00258824,108.269
0.00259079,108.441
0.00259324,108.704
0.00259572,108.877
0.00259823,109.189
0.00260072,109.304
0.00260328,109.656
0.00260572,109.813
0.00260824,109.998
0.00261074,110.225
0.00261322,110.381
0.00261578,110.595
0.00261827,110.891
0.00262074,111.122
0.00262327,111.262
0.0026257,111.354
0.00262828,111.634
0.00263076,111.768
0.00263327,111.947
0.00263577,112.19
0.00263825,112.396
0.00264078,112.538
0.00264324,112.704
0.00264578,112.988
0.00264828,113.14
0.00265069,113.308
0.00265328,113.484
0.00265575,113.703
0.00265828,113.772
0.00266076,114.016
0.00266325,114.274
0.00266577,114.219
0.00266826,114.453
0.00267075,114.644
0.00267323,114.781
0.00267575,114.948
0.00267825,115.165
0.00268072,115.355
0.00268323,115.443
0.00268578,115.691
0.00268827,115.767
0.00269077,115.887
0.00269326,116.086
0.00269575,116.136
0.00269825,116.254
0.00270076,116.377
0.00270325,116.52
0.00270574,116.624
0.00270827,116.844
0.00271078,116.946
0.00271326,117.064
0.00271576,117.139
0.00271825,117.247
0.00272073,117.449
0.00272323,117.479
0.00272573,117.614
0.00272826,117.775
0.00273076,117.82
0.00273327,117.957
0.00273577,118.092
0.00273826,118.093
0.00274076,118.263
0.00274325,118.299
0.00274573,118.4
0.00274825,118.561
0.00275075,118.622
0.00275325,118.618
0.00275577,118.786
0.00275825,118.758
0.00276075,118.97
0.00276325,118.989
0.00276571,119.139
0.00276825,119.12
0.00277073,119.243
0.00277325,119.373
0.00277574,119.377
0.00277824,119.532
0.00278072,119.644
0.00278325,119.713
0.00278575,119.82
0.00278822,119.846
0.00279074,120.081
0.00279323,120.17
0.00279574,120.141
0.00279823,120.224
0.00280071,120.189
0.00280321,120.312
0.00280575,120.389
0.00280827,120.324
0.00281075,120.348
0.00281323,120.394
0.00281573,120.351
0.00281822,120.571
0.00282073,120.566
0.00282324,120.654
0.00282574,120.667
0.00282824,120.602
0.00283075,120.737
0.00283325,120.678
0.00283577,120.669
0.00283823,120.671
0.00284073,120.868
0.00284322,120.8
0.00284571,120.773
0.00284822,120.852
0.0028507,120.731
0.00285321,120.826
0.00285576,120.878
0.00285825,120.795
0.00286072,120.784
0.00286322,120.835
0.00286571,120.882
0.00286821,120.796
0.00287072,120.665
0.00287322,120.697
0.00287573,120.778
0.00287823,120.776
0.00288074,120.79
0.00288325,120.76
0.00288572,120.708
0.00288822,120.774
0.0028907,120.731
0.00289323,120.819
0.00289569,120.743
0.00289823,120.747
0.00290074,120.623
0.00290321,120.669
0.00290571,120.709
0.00290821,120.705
0.00291072,120.88
0.00291319,120.649
0.0029157,120.701
0.0029182,120.748
0.00292073,120.692
0.00292322,120.656
0.00292571,120.75
0.00292822,120.695
0.0029307,120.612
0.00293321,120.599
0.0029357,120.564
0.0029382,120.568
0.00294071,120.479
0.00294322,120.525
0.00294572,120.421
0.00294823,120.44
0.00295072,120.316
0.00295325,120.294
0.00295571,120.342
0.00295822,120.326
0.00296069,120.266
0.00296318,120.262
0.00296569,120.249
0.00296821,120.215
0.00297072,120.196
0.0029732,120.14
0.0029757,120.098
0.00297823,120.011
0.0029807,119.991
0.00298319,119.917
0.0029857,119.986
0.00298821,119.888
0.00299069,119.794
0.00299318,119.73
0.00299571,119.705
0.0029982,119.67
0.00300069,119.705
0.00300321,119.514
0.00300568,119.548
0.00300817,119.446
0.00301069,119.435
0.00301317,119.46
0.00301571,119.321
0.00301818,119.338
0.00302071,119.35
0.00302317,119.251
0.00302568,119.347
0.00302819,119.25
0.00303065,119.114
0.00303317,119.186
0.00303569,119.044
0.0030382,119.015
0.0030407,118.982
0.0030432,118.805
0.00304571,118.851
0.00304819,118.866
0.00305067,118.774
0.0030532,118.695
0.00305565,118.559
0.00305817,118.655
0.00306067,118.563
0.00306318,118.476
0.00306569,118.47
0.00306819,118.49
0.00307067,118.443
0.00307319,118.433
0.00307568,118.389
0.00307819,118.278
0.00308064,118.083
0.00308321,118.162
0.00308569,118.166
0.0030882,118.163
0.00309068,118.111
0.00309315,118.05
0.00309569,118.015
0.00309815,118.026
0.00310068,117.831
0.00310316,117.919
0.00310566,117.926
0.00310819,117.951
0.00311065,117.939
0.00311316,117.884
0.00311568,117.796
0.00311816,117.861
0.00312068,117.823
0.00312315,117.744
0.00312567,117.726
0.00312817,117.724
0.00313068,117.773
0.00313316,117.704
0.00313566,117.636
0.00313818,117.646
0.00314068,117.597
0.00314319,117.516
0.00314568,117.484
0.00314814,117.377
0.00315067,117.391
0.00315316,117.356
0.00315567,117.358
0.00315817,117.162
0.00316065,117.308
0.00316318,117.213
0.00316568,117.197
0.00316817,117.146
0.00317068,117.243
0.00317315,117.187
0.00317566,117.062
0.00317817,117.117
0.0031806,117.197
0.00318317,117.054
0.00318565,117.047
0.00318818,116.956
0.00319065,116.965
0.00319314,116.915
0.00319566,116.78
0.00319815,116.852
0.00320066,116.664
0.00320317,116.54
0.0032056,116.703
0.00320819,116.61
0.0032106,116.582
0.00321318,116.425
0.00321566,116.441
0.00321815,116.303
0.00322063,116.413
0.00322311,116.308
0.00322566,116.156
0.00322814,116.202
0.00323064,116.195
0.00323313,116.109
0.00323564,116.142
0.00323818,115.988
0.0032406,115.883
0.00324309,115.937
0.00324559,115.824
0.00324808,115.77
0.00325059,115.667
0.00325309,115.554
0.0032556,115.515
0.00325811,115.444
0.00326058,115.462
0.00326307,115.407
0.00326559,115.325
0.00326809,115.155
0.0032706,115.127
0.00327308,115.088
0.00327559,115.13
0.0032781,115.014
0.0032806,115.084
0.00328308,114.859
0.00328559,114.745
0.00328809,114.69
0.00329057,114.662
0.0032931,114.419
0.00329557,114.444
0.00329807,114.26
0.00330059,114.272
0.00330307,114.221
0.00330559,113.925
0.00330808,113.959
0.00331058,113.845
0.00331308,113.781
0.00331557,113.514
0.00331808,113.439
0.00332058,113.339
0.00332307,113.253
0.00332561,113.082
0.00332807,112.797
0.00333058,112.726
0.00333309,112.444
0.00333557,111.832
0.00333791,26.6446
0.00334056,26.5411
0.0033431,26.4982
0.00334556,26.6126
0.00334809,26.4738
0.00335056,26.5346
0.00335305,26.5494
0.00335558,26.5172
0.00335808,26.6215
0.00336057,26.57
0.00336306,26.5359
0.00336456,26.547