File: data/PrimaryData/Unknown_Resin/Tensile_test_5.csv
Displacement,Load
-2.57587e-11,0.0502537
8.31417e-07,0.121934
2.32713e-06,0.149581
3.81026e-06,0.186861
5.27515e-06,0.281096
6.78287e-06,0.306958
8.28755e-06,0.348121
9.82093e-06,0.327521
1.13095e-05,0.42996
1.28034e-05,0.433869
1.4308e-05,0.502866
1.5807e-05,0.506683
1.72788e-05,0.539272
1.87747e-05,0.71998
2.02814e-05,0.682285
2.1771e-05,0.651028
2.32796e-05,0.798669
2.47692e-05,0.796336
2.62781e-05,0.739602
2.77757e-05,0.910076
2.92801e-05,0.919515
3.07757e-05,1.0455
3.22696e-05,1.01871
3.37884e-05,1.03952
3.529e-05,1.17836
3.67764e-05,1.17461
3.82761e-05,1.28583
3.97782e-05,1.2406
4.12534e-05,1.29335
4.27628e-05,1.38806
4.42719e-05,1.4813
4.57618e-05,1.44823
4.72651e-05,1.4962
4.87674e-05,1.59974
5.02602e-05,1.6365
5.17745e-05,1.6434
5.32666e-05,1.63092
5.47722e-05,1.66079
5.62756e-05,1.86779
5.77882e-05,1.86114
5.92775e-05,1.99924
6.07712e-05,1.98126
6.22711e-05,2.11386
6.37774e-05,2.15689
6.52721e-05,2.18191
6.67532e-05,2.20744
6.82522e-05,2.33722
6.97536e-05,2.35945
7.13045e-05,2.44103
7.27746e-05,2.40346
7.42596e-05,2.52123
7.57654e-05,2.5783
7.72706e-05,2.65807
7.8779e-05,2.73911
8.02633e-05,2.77756
8.17821e-05,2.78938
8.32765e-05,2.93351
8.47722e-05,2.9779
8.62676e-05,2.98868
8.77732e-05,3.0528
8.92467e-05,3.18777
9.07515e-05,3.20799
9.22551e-05,3.29409
9.37545e-05,3.36532
9.52609e-05,3.37683
9.67645e-05,3.41825
9.82623e-05,3.53003
9.9767e-05,3.52652
0.000101268,3.59952
0.000102774,3.83793
0.000104278,3.80281
0.000105764,3.87816
0.000107267,4.06013
0.000108776,4.10377
0.000110257,4.18332
0.000111754,4.39784
0.000113248,4.32454
0.000114761,4.46581
0.000116239,4.57169
0.000117745,4.67099
0.000119247,4.63175
0.000120754,4.71342
0.000122251,4.87284
0.000123745,4.96265
0.000125253,4.9695
0.000126763,5.08531
0.000128268,5.26516
0.000129758,5.20833
0.000131254,5.16296
0.000132753,5.11337
0.000134256,5.25153
0.000135743,5.35973
0.000137244,5.41608
0.000138751,5.63356
0.000140252,5.67823
0.000141745,5.8497
0.000143235,5.89167
0.00014476,5.88979
0.000146255,6.01425
0.000147742,6.15566
0.000149252,6.28132
0.000150755,6.38365
0.000152267,6.48996
0.000153755,6.50624
0.000155253,6.67222
0.000156744,6.75181
0.000158259,6.79706
0.000159749,6.9429
0.000161242,7.03946
0.000162744,7.16182
0.000164242,7.20354
0.000165738,7.34453
0.00016724,7.40522
0.000168741,7.58919
0.000170249,7.67272
0.000171742,7.77399
0.000173246,7.92396
0.000174748,8.00546
0.00017625,8.14743
0.000177748,8.26205
0.000179248,8.33925
0.00018075,8.41528
0.000182247,8.6584
0.00018375,8.66475
0.000185229,8.79547
0.000186738,8.97005
0.000188243,9.16823
0.000189749,9.12676
0.000191235,9.24512
0.000192736,9.3331
0.00019426,9.65015
0.000195765,9.70915
0.00019729,9.72927
0.000198757,9.81568
0.000200272,9.95801
0.000201772,10.0284
0.000203258,10.1965
0.000204774,10.2908
0.00020628,10.3785
0.000207759,10.5301
0.000209255,10.6324
0.000210727,10.7862
0.000212249,10.85
0.000213731,11.0901
0.000215219,11.0401
0.000216728,11.2374
0.000218223,11.471
0.000219766,11.5316
0.000221244,11.7559
0.000222757,11.7939
0.000224278,11.8689
0.000225758,12.023
0.0002273,12.1442
0.000228788,12.2729
0.000230296,12.4286
0.000231789,12.4253
0.000233285,12.5853
0.000234775,12.6468
0.000236269,12.849
0.000237776,12.8706
0.00023929,13.119
0.000240788,13.2867
0.000242283,13.3649
0.000243792,13.5436
0.000245303,13.6164
0.000246791,13.8169
0.000248292,13.9449
0.000249802,14.0063
0.000251289,14.0126
0.000252802,14.1396
0.000254281,14.3146
0.000255776,14.3843
0.000257275,14.479
0.000258763,14.5788
0.000260281,14.8259
0.000261781,14.9653
0.00026328,15.0543
0.000264792,15.1953
0.000266281,15.2398
0.000267784,15.4629
0.000269276,15.6522
0.000270776,15.7052
0.00027228,15.8761
0.000273766,15.9538
0.000275289,16.0236
0.000276789,16.2291
0.000278285,16.2479
0.000279769,16.4655
0.000281273,16.535
0.000282778,16.6456
0.000284262,17.0219
0.000285771,16.9961
0.000287283,17.0871
0.000288778,17.1607
0.000290271,17.3646
0.000291781,17.6349
0.00029328,17.6626
0.000294786,17.7862
0.000296276,17.8534
0.000297777,17.9784
0.000299271,18.184
0.000300769,18.2958
0.000302262,18.432
0.000303767,18.7652
0.000305262,18.7906
0.000306772,18.8352
0.00030826,19.1357
0.000309775,19.2743
0.000311273,19.4791
0.000312774,19.5044
0.000314294,19.6719
0.000315764,19.8383
0.000317269,20.0651
0.000318785,20.1945
0.000320277,20.2906
0.000321804,20.5343
0.000323272,20.64
0.000324758,20.7721
0.00032628,21.0035
0.000327763,21.2148
0.000329268,21.2525
0.000330769,21.4355
0.000332282,21.4898
0.000333757,21.771
0.000335259,21.8681
0.000336769,22.0745
0.000338264,22.1627
0.000339787,22.3289
0.000341268,22.5085
0.000342766,22.6306
0.000344278,22.89
0.000345766,22.9318
0.000347265,23.1814
0.000348759,23.2064
0.000350263,23.5194
0.000351788,23.6859
0.000353256,23.8708
0.000354749,23.9782
0.000356258,24.189
0.000357754,24.3444
0.000359257,24.4965
0.000360759,24.6934
0.00036226,24.8166
0.000363762,24.9482
0.000365261,25.183
0.000366765,25.3415
0.000368269,25.4657
0.000369782,25.5252
0.000371256,25.8218
0.00037276,25.9875
0.000374286,26.1526
0.000375753,26.2366
0.000377246,26.4411
0.000378749,26.6012
0.000380251,26.8704
0.000381758,26.9679
0.000383252,27.1388
0.000384755,27.4259
0.000386259,27.6477
0.00038776,27.8202
0.00038928,28.0009
0.000390759,28.1543
0.000392264,28.3001
0.000393764,28.4304
0.000395253,28.6276
0.000396778,28.6605
0.000398271,28.7432
0.000399748,28.8899
0.000401239,29.012
0.000402741,29.0702
0.000404239,29.2314
0.000405764,29.416
0.000407239,29.6076
0.000408748,29.7335
0.000410255,30.0032
0.000411775,30.0649
0.000413286,30.1316
0.000414755,30.3167
0.000416258,30.5592
0.000417763,30.7252
0.000419281,30.9247
0.000420732,31.0508
0.00042225,31.1182
0.000423745,31.1907
0.000425267,31.3425
0.000426738,31.5412
0.000428236,31.7431
0.00042975,32.0628
0.000431252,32.1861
0.000432747,32.2826
0.000434254,32.4234
0.000435758,32.5432
0.000437275,32.9456
0.000438777,32.8996
0.000440245,33.122
0.000441764,33.2617
0.000443252,33.5853
0.000444743,33.6205
0.000446231,33.826
0.00044773,34.0415
0.000449247,34.1773
0.000450729,34.3064
0.000452228,34.4759
0.000453749,34.6591
0.000455238,34.8532
0.000456744,35.0016
0.000458226,35.1666
0.000459765,35.4002
0.000461239,35.5296
0.00046273,35.6666
0.000464234,35.6867
0.000465732,35.8922
0.000467254,36.0025
0.000468728,36.2458
0.000470227,36.3473
0.00047172,36.4668
0.000473249,36.649
0.000474737,36.9364
0.000476222,37.022
0.000477735,37.2253
0.000479236,37.3536
0.000480741,37.5706
0.000482257,37.7633
0.000483745,37.7752
0.000485247,38.0105
0.00048674,38.0682
0.00048823,38.3374
0.000489751,38.5058
0.000491231,38.5777
0.000492733,38.7739
0.000494251,38.9834
0.000495734,38.9477
0.000497216,39.2627
0.000498723,39.4045
0.000500235,39.6714
0.000501734,39.7852
0.000503221,39.8004
0.000504736,39.9532
0.000506256,40.1881
0.000507746,40.3362
0.000509239,40.4212
0.00051074,40.5744
0.000512243,40.7642
0.000513734,40.8948
0.000515227,41.0756
0.00051673,41.1472
0.000518252,41.2822
0.000519712,41.4369
0.000521217,41.553
0.00052273,41.6802
0.000524227,41.7763
0.000525716,41.9038
0.000527237,42.1598
0.000528719,42.2314
0.000530222,42.3625
0.000531741,42.3919
0.000533241,42.6171
0.000534726,42.7775
0.000536256,42.8142
0.000537743,43.0679
0.000539236,43.2226
0.000540725,43.4027
0.00054222,43.472
0.000543738,43.5742
0.000545205,43.7355
0.000546707,43.8615
0.000548232,43.9703
0.00054971,44.2332
0.000551228,44.3382
0.000552731,44.4355
0.00055421,44.6465
0.000555738,44.8069
0.000557217,44.7958
0.00055872,45.1795
0.000560237,45.1144
0.000561726,45.3635
0.000563222,45.557
0.000564726,45.6943
0.000566229,45.8857
0.00056773,46.0168
0.000569228,46.1622
0.000570703,46.3934
0.000572212,46.5311
0.000573723,46.6916
0.000575211,46.6519
0.000576727,47.0719
0.000578241,47.0194
0.000579742,47.155
0.000581205,47.4704
0.000582746,47.4267
0.000584221,47.6228
0.000585745,47.7458
0.000587227,47.787
0.000588707,48.1424
0.000590226,48.1204
0.00059172,48.1545
0.00059321,48.5013
0.000594705,48.5942
0.000596198,48.6758
0.000597727,48.8388
0.000599232,49.0089
0.000600725,49.1918
0.000602205,49.3919
0.000603735,49.3746
0.000605228,49.5934
0.000606728,49.7279
0.000608231,49.8705
0.000609708,49.9956
0.000611207,50.3345
0.000612723,50.4835
0.000614191,50.6099
0.000615704,50.8741
0.00061721,51.0034
0.000618696,51.3614
0.000620171,51.5166
0.000621715,51.5643
0.00062321,51.7818
0.000624724,52.102
0.000626211,52.2341
0.000627725,52.3284
0.000629222,52.5143
0.000630727,52.6711
0.000632206,52.9178
0.000633706,53.0263
0.000635213,53.2432
0.000636718,53.4409
0.000638191,53.529
0.000639703,53.7088
0.000641189,53.8365
0.000642713,54.0843
0.0006442,54.2296
0.000645703,54.3996
0.000647216,54.5319
0.000648724,54.7296
0.000650219,54.8655
0.000651698,54.9637
0.000653202,55.1734
0.000654727,55.351
0.000656211,55.4627
0.000657715,55.6609
0.000659192,55.9189
0.000660716,56.1446
0.000662202,56.2508
0.0006637,56.3724
0.000665197,56.6202
0.000666692,56.8154
0.000668195,57.0751
0.000669684,57.3327
0.000671207,57.4916
0.000672707,57.6963
0.000674208,57.8687
0.000675705,57.9745
0.000677212,58.3046
0.000678711,58.4229
0.000680213,58.6784
0.000681702,58.7693
0.000683204,58.9818
0.000684693,59.1479
0.000686209,59.3932
0.000687691,59.5398
0.000689148,59.796
0.00069067,59.9535
0.000692174,60.0697
0.000693686,60.3813
0.000695191,60.462
0.000696693,60.7124
0.000698207,60.8075
0.000699702,61.114
0.000701202,61.122
0.000702709,61.3899
0.000704193,61.587
0.000705701,61.6996
0.000707199,61.9649
0.00070869,62.2305
0.000710188,62.4151
0.000711694,62.544
0.000713191,62.8327
0.000714673,62.9802
0.00071619,63.1809
0.000717687,63.5196
0.00071919,63.633
0.000720692,63.897
0.000722206,64.0229
0.000723708,64.2518
0.000725196,64.4678
0.000726682,64.718
0.000728205,64.8957
0.000729697,65.0769
0.000731191,65.2804
0.000732677,65.439
0.000734192,65.7529
0.000735666,65.9884
0.000737168,66.1633
0.000738682,66.3779
0.000740194,66.5551
0.00074169,66.7202
0.000743164,66.9258
0.000744694,67.1265
0.000746201,67.249
0.000747685,67.4559
0.000749175,67.611
0.00075071,67.8371
0.000752173,68.088
0.00075368,68.2299
0.000755192,68.4349
0.00075668,68.6357
0.000758184,68.8462
0.000759694,68.942
0.000761145,69.1965
0.000762675,69.3829
0.000764169,69.5736
0.000765696,69.7239
0.000767191,69.9021
0.000768691,70.1025
0.000770201,70.3251
0.000771673,70.4849
0.000773199,70.8316
0.00077468,70.957
0.00077619,71.0999
0.000777687,71.2956
0.000779174,71.5641
0.000780665,71.6833
0.000782179,71.9536
0.000783673,72.2651
0.000785166,72.3785
0.00078664,72.4947
0.000788175,72.7954
0.00078967,72.9372
0.00079119,73.162
0.000792657,73.2684
0.00079418,73.5099
0.000795689,73.7084
0.000797185,73.9074
0.00079868,74.0148
0.000800168,74.3459
0.00080168,74.5971
0.000803161,74.6366
0.000804673,74.9907
0.00080617,75.0951
0.000807667,75.2899
0.000809174,75.4834
0.000810682,75.7347
0.000812149,75.8792
0.000813666,76.1272
0.000815185,76.3465
0.000816688,76.5459
0.000818149,76.7291
0.000819681,76.8973
0.000821179,77.1636
0.000822683,77.3185
0.000824167,77.4422
0.000825659,77.6764
0.000827177,77.866
0.000828634,78.0064
0.000830119,78.2364
0.00083163,78.3986
0.000833169,78.6186
0.000834668,78.8383
0.000836167,78.9867
0.000837673,79.1556
0.000839172,79.3966
0.000840653,79.5743
0.000842149,79.858
0.00084366,79.8894
0.000845183,80.087
0.000846676,80.3421
0.000848171,80.5222
0.000849669,80.6922
0.000851149,80.8302
0.000852668,80.9905
0.000854145,81.1218
0.000855664,81.3347
0.000857168,81.547
0.000858678,81.6478
0.00086017,81.889
0.000861644,82.0832
0.000863156,82.2762
0.000864664,82.3844
0.000866175,82.5818
0.000867677,82.7459
0.000869152,82.857
0.000870669,83.0789
0.000872165,83.2079
0.000873614,83.4815
0.000875148,83.5738
0.000876647,83.7697
0.00087816,83.9224
0.000879621,84.1832
0.000881128,84.3212
0.000882658,84.3867
0.000884138,84.5715
0.00088562,84.8318
0.000887163,84.8044
0.00088865,85.1613
0.000890159,85.167
0.000891651,85.3412
0.000893155,85.6347
0.00089465,85.7152
0.000896156,85.7612
0.000897619,86.1148
0.000899088,86.0687
0.000900627,86.2802
0.000902154,86.5272
0.000903623,86.6804
0.000905078,86.7416
0.000906658,86.9465
0.000908142,87.2413
0.000909624,87.278
0.000911149,87.4821
0.000912602,87.6884
0.000914141,87.8209
0.000915638,87.8641
0.000917157,87.9731
0.000918639,88.1332
0.000920145,88.3561
0.000921598,88.3381
0.000923088,88.5614
0.000924628,88.6653
0.000926128,88.7776
0.000927626,89.023
0.00092912,89.1727
0.000930599,89.289
0.000932087,89.3599
0.00093359,89.6116
0.000935098,89.6404
0.00093663,89.8079
0.000938109,89.8902
0.000939594,90.0751
0.00094109,90.1934
0.000942579,90.2981
0.000944089,90.5027
0.000945584,90.6078
0.000947096,90.7405
0.000948575,91.0123
0.000950072,90.8905
0.000951591,90.9743
0.000953089,91.2129
0.000954576,91.3572
0.000956078,91.47
0.000957602,91.522
0.000959088,91.6787
0.000960585,91.8396
0.000962071,91.8251
0.000963589,92.0975
0.0009651,92.1109
0.000966582,92.2457
0.000968086,92.3613
0.000969566,92.3448
0.000971078,92.4822
0.000972566,92.6385
0.000974067,92.778
0.000975568,92.8352
0.000977063,92.9812
0.000978556,93.122
0.000980069,93.2229
0.000981582,93.375
0.000983088,93.3522
0.000984582,93.4978
0.000986087,93.6289
0.00098758,93.6753
0.00098909,93.8562
0.000990593,93.8298
0.000992067,93.978
0.00099358,94.0098
0.000995069,94.2186
0.000996561,94.1632
0.000998061,94.2402
0.00099956,94.3786
0.00100106,94.3533
0.00100257,94.4946
0.00100406,94.5894
0.00100558,94.6677
0.0010071,94.8177
0.00100856,94.8543
0.00101007,94.8868
0.00101157,95.079
0.00101307,94.9797
0.00101458,95.2598
0.00101606,95.2338
0.00101755,95.2971
0.00101908,95.3021
0.00102056,95.4903
0.00102205,95.5041
0.00102355,95.5998
0.00102508,95.6997
0.00102655,95.7303
0.00102806,95.6932
0.00102956,95.8715
0.00103106,95.8594
0.00103258,95.982
0.00103408,96.0362
0.00103555,96.099
0.00103708,96.1625
0.00103856,96.2447
0.00104005,96.2305
0.00104156,96.3414
0.00104307,96.2832
0.00104456,96.4576
0.00104606,96.5905
0.00104755,96.5397
0.00104906,96.5858
0.00105057,96.5908
0.00105205,96.7599
0.00105355,96.8398
0.00105506,96.78
0.00105657,96.8977
0.00105807,96.8459
0.00105956,96.9538
0.00106107,97.0526
0.00106256,97.0617
0.00106404,97.0774
0.00106554,97.1189
0.00106704,97.1716
0.00106855,97.18
0.00107003,97.2141
0.00107156,97.2395
0.00107304,97.2514
0.00107455,97.3717
0.00107607,97.3353
0.00107755,97.3764
0.00107906,97.3767
0.00108057,97.5292
0.00108207,97.5243
0.00108355,97.3544
0.00108504,97.5155
0.00108655,97.6243
0.00108806,97.538
0.00108955,97.5944
0.00109107,97.5019
0.00109255,97.6194
0.00109405,97.521
0.00109553,97.6835
0.00109704,97.7067
0.00109854,97.6597
0.00110005,97.6391
0.00110154,97.6113
0.00110308,97.5766
0.00110458,97.6571
0.0011061,97.6667
0.00110759,97.6853
0.00110905,97.6984
0.00111056,97.7029
0.00111205,97.6557
0.00111355,97.6764
0.00111505,97.7939
0.00111653,97.7017
0.00111805,97.6879
0.00111954,97.8053
0.00112104,97.8303
0.00112258,97.7226
0.00112408,97.8088
0.00112559,97.7927
0.00112708,97.9241
0.00112862,97.7953
0.0011301,97.8006
0.00113159,97.8213
0.00113305,97.8099
0.0011346,97.7044
0.0011361,97.7679
0.00113758,97.7145
0.00113905,97.6857
0.00114059,97.7854
0.0011421,97.744
0.00114358,97.6182
0.00114507,97.6865
0.00114656,97.7065
0.0011481,97.6627
0.0011496,97.6178
0.00115109,97.5809
0.00115258,97.647
0.00115413,97.684
0.00115559,97.5376
0.00115707,97.4764
0.0011586,97.5552
0.00116008,97.3329
0.00116159,97.4691
0.00116305,97.4502
0.00116458,97.3999
0.00116609,97.3611
0.00116759,97.4437
0.00116908,97.3727
0.0011706,97.3098
0.00117212,97.3036
0.00117361,97.3084
0.00117508,97.2726
0.00117659,97.3584
0.0011781,97.177
0.00117957,97.1309
0.00118107,97.2079
0.00118257,97.2482
0.00118408,97.1584
0.00118559,97.1594
0.00118706,97.1882
0.00118859,97.1156
0.00119008,97.0234
0.00119158,97.0457
0.00119307,97.104
0.00119457,96.9871
0.00119608,96.9226
0.0011976,96.9668
0.0011991,96.9664
0.00120059,96.7723
0.00120208,96.7784
0.00120356,96.8917
0.00120507,96.794
0.0012066,96.8442
0.00120807,96.6868
0.00120957,96.6437
0.00121108,96.6405
0.00121258,96.6311
0.00121408,96.4796
0.00121557,96.6069
0.00121708,96.6751
0.00121859,96.5918
0.00122008,96.6125
0.00122158,96.4597
0.00122309,96.525
0.00122459,96.5245
0.00122609,96.4265
0.00122758,96.5228
0.00122908,96.4627
0.00123057,96.4684
0.0012321,96.4766
0.00123358,96.3424
0.00123506,96.378
0.00123657,96.4159
0.00123807,96.3581
0.00123957,96.3536
0.00124107,96.2598
0.00124258,96.4115
0.00124407,96.3096
0.00124559,96.4208
0.00124707,96.34
0.00124856,96.2009
0.00125005,96.2657
0.00125158,96.1174
0.00125308,96.1844
0.00125456,96.119
0.00125609,96.1343
0.00125756,96.181
0.00125905,96.0364
0.00126056,96.0631
0.00126208,96.1655
0.00126358,95.9802
0.00126508,95.9744
0.00126658,95.932
0.00126808,95.9832
0.00126956,95.8493
0.00127108,95.9135
0.00127258,95.8684
0.00127408,95.8693
0.00127557,95.7273
0.00127707,95.8877
0.00127856,95.7917
0.00128007,95.8357
0.00128159,95.6884
0.00128306,95.8147
0.00128453,95.7478
0.00128606,95.6818
0.00128757,95.7627
0.00128906,95.6865
0.00129055,95.685
0.0012921,95.5285
0.00129356,95.6238
0.00129506,95.6386
0.00129657,95.5111
0.00129806,95.5194
0.00129956,95.4486
0.00130107,95.4769
0.00130255,95.301
0.00130406,95.3699
0.00130554,95.3108
0.00130704,95.2678
0.00130853,95.2203
0.00131005,95.1492
0.00131154,95.1935
0.00131307,95.0244
0.00131455,94.9833
0.00131605,94.9234
0.00131758,95.0004
0.00131907,94.9884
0.00132056,94.9103
0.00132206,94.9202
0.00132357,94.8008
0.00132505,94.8025
0.00132656,94.6931
0.00132804,94.8196
0.00132956,94.8419
0.00133105,94.7736
0.00133255,94.6459
0.00133405,94.6198
0.00133556,94.59
0.00133706,94.7571
0.00133858,94.6062
0.00134006,94.465
0.00134155,94.4114
0.00134306,94.3912
0.00134456,94.2879
0.00134607,94.2303
0.00134756,94.3271
0.00134905,94.3311
0.00135057,94.0954
0.00135204,94.0968
0.00135355,94.0682
0.00135504,93.9614
0.00135654,93.875
0.00135805,93.9532
0.00135955,93.8818
0.00136106,93.6803
0.00136255,93.738
0.00136406,93.7668
0.00136555,93.7249
0.00136706,93.7144
0.00136853,93.6286
0.00137005,93.6219
0.00137154,93.6169
0.00137304,93.5533
0.00137453,93.5145
0.00137604,93.5044
0.00137753,93.4521
0.00137903,93.4015
0.00138054,93.311
0.00138202,93.3707
0.00138356,93.3356
0.00138505,93.464
0.00138656,93.2644
0.00138804,93.3046
0.00138955,93.2441
0.00139104,93.2137
0.00139256,92.922
0.00139405,93.1917
0.00139557,93.0926
0.00139704,93.013
0.00139853,92.9451
0.00140007,92.9751
0.00140152,92.9322
0.00140304,92.9002
0.00140455,93.0365
0.00140604,92.7133
0.00140754,92.6818
0.00140906,92.7564
0.00141052,92.7334
0.00141204,92.7326
0.00141354,92.7368
0.00141503,92.7436
0.00141654,92.6052
0.00141805,92.576
0.00141954,92.5722
0.00142104,92.482
0.00142254,92.496
0.00142405,92.4839
0.00142555,92.4795
0.00142705,92.4848
0.00142853,92.4149
0.00143005,92.444
0.00143152,92.5231
0.00143303,92.4008
0.00143454,92.4058
0.00143607,92.3717
0.00143752,92.3617
0.00143903,92.3799
0.00144055,92.2533
0.00144203,92.3331
0.00144355,92.2394
0.00144503,92.3868
0.00144652,92.2063
0.00144805,92.1393
0.00144952,92.1936
0.001451,92.0845
0.00145254,92.2149
0.00145402,92.2062
0.00145553,92.1186
0.00145703,92.165
0.00145853,92.1306
0.00146005,92.0485
0.00146155,92.2618
0.00146306,92.1124
0.00146452,92.0843
0.00146606,92.0632
0.00146753,91.981
0.00146906,91.986
0.00147054,92.0293
0.00147204,92.1319
0.00147354,91.9359
0.00147503,92.0473
0.00147651,91.9389
0.00147804,91.9898
0.00147953,91.9201
0.00148101,91.9207
0.00148253,91.927
0.00148405,91.7652
0.00148556,91.6825
0.00148704,91.7777
0.00148853,91.8168
0.00149003,91.7492
0.00149153,91.7626
0.00149301,91.7159
0.00149453,91.5844
0.00149601,91.6605
0.00149753,91.7604
0.001499,91.6293
0.00150052,91.6004
0.00150201,91.64
0.00150353,91.6875
0.00150503,91.6004
0.00150653,91.5389
0.00150803,91.5387
0.00150956,91.5827
0.00151104,91.4837
0.00151253,91.4101
0.00151401,91.5329
0.00151553,91.4679
0.00151703,91.4905
0.00151851,91.5177
0.00152001,91.4126
0.00152152,91.4197
0.00152303,91.3991
0.00152451,91.4636
0.00152599,91.5792
0.00152754,91.429
0.00152903,91.4299
0.00153054,91.3289
0.00153203,91.2877
0.00153354,91.3628
0.00153503,91.3451
0.00153653,91.3196
0.00153803,91.3149
0.00153951,91.2339
0.00154103,91.2087
0.0015425,91.3442
0.00154401,91.1924
0.00154552,91.2473
0.001547,91.1602
0.0015485,91.2611
0.00155001,91.2808
0.00155152,91.1985
0.00155302,91.2144
0.00155451,91.2507
0.00155601,91.2457
0.00155749,91.2215
0.00155903,91.1417
0.00156052,91.1631
0.00156198,91.1831
0.00156351,91.1741
0.00156502,91.2518
0.0015665,91.168
0.001568,91.1854
0.00156951,91.1058
0.00157103,91.1804
0.00157251,91.1621
0.00157401,91.1815
0.00157551,91.0827
0.00157701,91.0897
0.00157851,91.148
0.00158003,91.1682
0.00158149,91.0979
0.00158302,91.053
0.00158451,91.0736
0.001586,91.1504
0.00158751,91.0432
0.00158898,90.9518
0.00159051,90.9999
0.00159198,91.0361
0.0015935,91.004
0.00159501,91.1307
0.0015965,91.0152
0.00159799,91.0567
0.00159951,91.051
0.001601,91.0183
0.00160252,91.1222
0.00160402,90.9076
0.00160551,90.9513
0.00160701,90.8938
0.00160851,90.9702
0.00161,90.9404
0.00161148,90.9929
0.001613,90.9466
0.00161451,90.9531
0.00161601,90.9358
0.00161749,91.0415
0.00161898,90.8347
0.00162051,90.9147
0.001622,90.8567
0.00162348,90.9513
0.00162499,91.0257
0.00162651,90.9069
0.00162801,90.8734
0.00162951,90.9098
0.001631,90.9025
0.00163249,90.8996
0.00163401,90.8286
0.00163548,90.7918
0.00163699,90.9821
0.00163849,90.8523
0.00164,90.8445
0.00164146,90.8783
0.00164296,90.8346
0.00164448,90.9048
0.00164599,90.8694
0.0016475,90.7713
0.00164899,90.7616
0.00165049,90.736
0.00165201,90.7193
0.00165351,90.7107
0.00165499,90.8359
0.00165649,90.7508
0.00165801,90.7511
0.00165949,90.7587
0.00166097,90.7375
0.00166249,90.7665
0.00166397,90.7094
0.0016655,90.7575
0.00166698,90.7387
0.00166846,90.7452
0.00167,90.7472
0.00167148,90.7377
0.00167299,90.7306
0.00167448,90.6869
0.00167601,90.7997
0.0016775,90.7196
0.00167901,90.79
0.00168048,90.7814
0.00168199,90.7124
0.00168348,90.6916
0.00168499,90.7884
0.00168647,90.6955
0.00168799,90.7103
0.00168948,90.7016
0.00169097,90.6837
0.00169246,90.6824
0.00169399,90.7173
0.00169548,90.6848
0.001697,90.7336
0.0016985,90.7049
0.00169999,90.767
0.0017015,90.7565
0.00170298,90.7087
0.00170447,90.7447
0.00170596,90.59
0.00170748,90.6587
0.00170899,90.7301
0.00171047,90.7399
0.00171198,90.6869
0.00171346,90.6982
0.00171497,90.7134
0.00171648,90.7089
0.00171798,90.687
0.0017195,90.6556
0.001721,90.784
0.00172248,90.6566
0.00172398,90.7549
0.00172548,90.7765
0.00172699,90.7534
0.00172848,90.6487
0.00172997,90.7864
0.00173147,90.6939
0.00173297,90.7472
0.00173447,90.7116
0.00173595,90.6879
0.00173748,90.7491
0.00173897,90.7733
0.00174048,90.7855
0.00174193,90.7983
0.00174347,90.712
0.00174497,90.8083
0.00174649,90.7465
0.00174794,90.7251
0.00174947,90.7448
0.00175099,90.6966
0.00175247,90.778
0.00175394,90.7562
0.00175546,90.9096
0.00175697,90.7697
0.00175846,90.8823
0.00175997,90.9752
0.00176148,90.8376
0.00176298,90.8791
0.00176447,90.9795
0.00176594,90.7911
0.00176744,90.9757
0.00176898,90.9871
0.00177049,90.8629
0.00177196,90.7879
0.00177347,90.7936
0.00177498,90.803
0.00177643,90.9699
0.00177797,90.9946
0.00177942,90.8997
0.00178094,90.9136
0.00178244,90.9657
0.00178396,90.865
0.00178544,91.019
0.00178696,90.9985
0.00178843,90.8614
0.00178997,90.9174
0.00179146,91.0007
0.00179296,90.963
0.00179447,90.9462
0.00179593,90.951
0.00179742,91.0137
0.00179897,91.0038
0.00180047,91.0702
0.00180196,90.9727
0.00180344,90.979
0.00180493,91.0804
0.00180646,90.8942
0.00180792,91.0612
0.00180942,91.0233
0.00181092,91.0198
0.00181246,91.0946
0.00181397,91.0919
0.00181542,91.0134
0.00181694,91.0708
0.00181847,91.0239
0.00181997,91.0228
0.00182145,91.06
0.00182292,91.048
0.00182443,91.0964
0.00182595,91.1973
0.00182741,91.2486
0.0018289,91.1076
0.00183042,91.0793
0.00183192,90.9659
0.00183344,91.0501
0.00183489,91.1811
0.0018364,91.2717
0.0018379,91.0531
0.0018394,91.1606
0.00184088,91.1134
0.00184243,91.1559
0.00184393,91.2422
0.00184545,91.1715
0.0018469,91.2469
0.00184841,91.3325
0.00184989,91.1605
0.00185139,91.2383
0.00185288,91.3262
0.0018544,91.3116
0.00185588,91.2805
0.00185739,91.4295
0.00185891,91.2221
0.00186039,91.2638
0.0018619,91.3833
0.0018634,91.2808
0.00186491,91.3152
0.00186638,91.302
0.00186791,91.2623
0.0018694,91.2851
0.0018709,91.3131
0.00187239,91.2824
0.00187389,91.2939
0.00187539,91.3064
0.00187689,91.3597
0.00187838,91.2947
0.00187987,91.5014
0.00188138,91.3475
0.00188289,91.4408
0.00188438,91.3555
0.00188589,91.3918
0.00188739,91.3377
0.0018889,91.4762
0.00189039,91.4263
0.00189189,91.4183
0.0018934,91.4952
0.00189488,91.4481
0.00189637,91.5829
0.00189789,91.4573
0.00189937,91.5389
0.00190088,91.5637
0.00190238,91.5438
0.00190387,91.535
0.00190539,91.5818
0.00190689,91.5268
0.00190839,91.6209
0.00190988,91.602
0.00191139,91.6383
0.00191289,91.6969
0.0019144,91.7155
0.0019159,91.6156
0.00191738,91.6837
0.00191889,91.6888
0.00192039,91.783
0.00192188,91.8001
0.00192337,91.8214
0.00192488,91.8591
0.00192638,91.8897
0.00192787,91.8589
0.00192936,91.8098
0.00193089,91.9131
0.00193238,91.9121
0.00193388,91.9187
0.00193538,91.9683
0.00193689,91.9931
0.00193839,91.9573
0.00193987,91.9603
0.00194138,91.9171
0.00194288,92.0977
0.00194437,92.0272
0.00194587,91.9821
0.00194736,91.9935
0.00194887,92.0836
0.00195036,92.048
0.00195186,92.0731
0.00195336,92.1429
0.00195488,92.1719
0.00195638,92.1434
0.00195787,92.1744
0.00195937,92.1031
0.00196088,92.1382
0.00196238,92.1465
0.00196387,92.1784
0.00196535,92.2035
0.00196686,92.1703
0.00196838,92.1278
0.00196985,92.2729
0.00197135,92.2289
0.00197285,92.1892
0.00197436,92.2123
0.00197586,92.3473
0.00197735,92.3255
0.00197886,92.2621
0.00198036,92.2493
0.00198187,92.2852
0.00198336,92.3963
0.00198487,92.3449
0.00198639,92.2927
0.00198787,92.3862
0.00198936,92.3689
0.00199086,92.3825
0.00199237,92.3873
0.00199387,92.3985
0.00199534,92.3743
0.00199686,92.436
0.00199835,92.3986
0.00199986,92.4117
0.00200133,92.4715
0.00200286,92.5397
0.00200436,92.4694
0.00200589,92.5139
0.00200736,92.5195
0.00200887,92.5777
0.00201037,92.569
0.00201185,92.5245
0.00201335,92.5796
0.00201485,92.5556
0.00201636,92.5552
0.00201787,92.5973
0.00201935,92.6713
0.00202084,92.5611
0.00202234,92.6665
0.00202385,92.6357
0.00202534,92.6159
0.00202685,92.832
0.00202836,92.6801
0.00202986,92.7402
0.00203136,92.7173
0.00203285,92.6115
0.00203436,92.7684
0.00203588,92.7314
0.00203736,92.82
0.00203885,92.7613
0.00204038,92.8588
0.00204187,92.7268
0.00204333,92.7595
0.00204484,92.8192
0.00204634,92.8104
0.00204787,92.8197
0.00204934,92.8311
0.00205085,92.9384
0.0020524,92.961
0.0020539,92.8643
0.00205535,92.8326
0.00205688,92.8963
0.00205839,92.9338
0.0020599,92.886
0.00206133,92.9717
0.00206286,92.9263
0.00206432,92.977
0.00206587,93.0034
0.00206735,93.0416
0.00206883,92.9921
0.00207035,93.0482
0.00207184,92.9944
0.00207339,93.0057
0.00207484,93.0736
0.00207634,93.1428
0.00207783,93.0145
0.00207941,93.0554
0.00208085,93.083
0.00208236,93.1148
0.0020839,93.1504
0.00208538,93.061
0.00208684,93.0233
0.00208836,93.1446
0.00208988,93.0213
0.00209138,93.0469
0.00209289,93.0137
0.00209434,93.0556
0.0020959,93.0426
0.00209739,93.0537
0.00209891,92.972
0.00210035,93.0821
0.0021019,93.144
0.00210339,93.0423
0.00210491,93.0133
0.00210633,93.0654
0.00210789,92.957
0.00210937,93.0446
0.00211089,93.0057
0.00211233,93.0668
0.00211387,92.9652
0.00211538,93.0523
0.00211689,93.0332
0.00211837,93.0633
0.0021199,93.0343
0.00212138,92.9454
0.00212289,93.0616
0.00212436,93.032
0.00212587,93.1006
0.00212739,93.0878
0.00212888,92.9892
0.00213041,93.0901
0.00213189,93.0966
0.00213339,93.0872
0.00213487,92.9632
0.00213638,93.1189
0.00213787,93.0642
0.00213939,93.0083
0.00214089,93.0079
0.00214237,93.0218
0.00214387,93.0128
0.00214539,93.0413
0.00214688,93.0421
0.0021484,93.0195
0.00214986,93.0979
0.00215137,92.9452
0.00215288,92.9892
0.00215438,92.9989
0.00215589,92.8923
0.00215739,92.928
0.0021589,92.9711
0.00216038,92.9638
0.00216188,93.0426
0.00216336,92.9658
0.00216487,92.9316
0.00216635,92.9318
0.00216785,92.9763
0.00216936,93.0849
0.00217087,93.0951
0.00217237,93.0701
0.00217385,92.9837
0.00217538,92.9695
0.0021769,93.0169
0.00217838,93.0176
0.0021799,93.0305
0.00218138,92.9144
0.00218288,92.8647
0.00218439,92.8462
0.00218582,92.823
0.00218727,0.126014
0.00218885,0.0232248
0.00219038,0.0238639
0.00219186,-0.00885964
0.00219336,0.00509379
0.00219488,-0.0682051
0.00219639,-0.0485934
0.00219789,-0.0900192
0.00219937,-0.0414207
0.00220088,-0.0735245
0.00220238,0.0117768
0.0022039,0.011725
0.00220536,-0.160362
0.00220686,-0.0474026
0.00220837,-0.0581171
0.00220987,-0.0306563
0.00221134,-0.0368729
0.00221288,0.04486
0.00221435,-0.0239989
0.00221587,0.021329
0.00221735,0.0327889
0.00221885,-0.0487057
0.00222038,-0.0209589
0.00222186,-0.0180859
0.00222336,-0.0955147
0.00222487,-0.107497
0.00222638,-0.038263
0.00222789,0.0116984
0.00222936,-0.0605248
0.00223085,-0.00927557
0.00223237,0.0620265
0.00223386,-0.0714585
0.00223536,0.0013041
0.00223686,-0.0368629
0.00223836,-0.017145
0.00223986,0.0370224
0.00224135,-0.0812604
0.00224287,-0.0469092
0.00224437,-0.00973776
0.00224588,0.0526638
0.00224686,-0.0141523