File: data/PrimaryData/Unknown_Resin/Tensile_test_4.csv
Displacement,Load
-1.44416e-16,-0.0693721
1.28126e-06,-0.0886075
2.77238e-06,0.00623598
4.30645e-06,0.0909388
5.80228e-06,0.0682571
7.26487e-06,0.184988
8.81833e-06,0.210305
1.03063e-05,0.25397
1.18076e-05,0.291376
1.33071e-05,0.247958
1.48077e-05,0.271682
1.6316e-05,0.402334
1.78329e-05,0.425168
1.93393e-05,0.379329
2.08141e-05,0.476792
2.23326e-05,0.620971
2.38472e-05,0.49372
2.53525e-05,0.622251
2.68538e-05,0.641526
2.83417e-05,0.557926
2.98569e-05,0.715113
3.13373e-05,0.64832
3.2842e-05,0.768945
3.43314e-05,0.776497
3.58505e-05,0.826154
3.73382e-05,0.861574
3.8847e-05,0.920615
4.03512e-05,1.04841
4.18594e-05,1.01258
4.33572e-05,1.04828
4.48306e-05,1.17344
4.63545e-05,1.12507
4.78493e-05,1.22284
4.9362e-05,1.2286
5.08326e-05,1.3178
5.23371e-05,1.35193
5.38464e-05,1.41153
5.53371e-05,1.41552
5.68399e-05,1.48754
5.83307e-05,1.53717
5.98351e-05,1.55018
6.1304e-05,1.68635
6.2835e-05,1.68995
6.43287e-05,1.69426
6.58629e-05,1.88913
6.73446e-05,1.83858
6.88289e-05,1.94127
7.03403e-05,2.027
7.18392e-05,1.95396
7.33423e-05,1.97607
7.48293e-05,2.165
7.63047e-05,2.33309
7.78317e-05,2.17847
7.93274e-05,2.35412
8.08461e-05,2.38076
8.23216e-05,2.36106
8.38109e-05,2.60213
8.53443e-05,2.47836
8.68428e-05,2.67466
8.83378e-05,2.76014
8.98293e-05,2.74812
9.13451e-05,2.85269
9.28239e-05,2.78513
9.43155e-05,3.00755
9.58344e-05,3.04102
9.73441e-05,3.08079
9.8853e-05,3.2265
0.000100324,3.21777
0.000101816,3.34098
0.000103339,3.42514
0.000104828,3.40666
0.000106315,3.50263
0.000107812,3.58422
0.000109336,3.71755
0.000110821,3.82707
0.000112328,3.87343
0.000113852,3.9685
0.000115352,4.05092
0.000116829,4.09112
0.000118321,4.22281
0.000119823,4.28556
0.000121354,4.29696
0.000122849,4.32435
0.00012432,4.55233
0.000125806,4.54287
0.000127342,4.70757
0.000128838,4.75489
0.00013032,4.8104
0.000131827,4.87859
0.00013334,4.99256
0.000134838,5.07053
0.000136332,5.09142
0.000137833,5.26452
0.000139333,5.33568
0.000140834,5.48463
0.000142344,5.54266
0.000143849,5.65006
0.000145319,5.72038
0.000146825,5.80566
0.000148336,5.90156
0.000149766,5.97862
0.000151321,6.07706
0.000152826,6.19107
0.000154322,6.2457
0.000155798,6.39056
0.000157326,6.50378
0.000158826,6.59749
0.000160322,6.6162
0.000161784,6.75705
0.000163338,6.81542
0.000164844,6.88282
0.000166322,6.97329
0.000167781,7.20502
0.000169326,7.37129
0.000170829,7.37284
0.00017232,7.44122
0.000173794,7.52784
0.000175255,7.69482
0.000176808,7.73256
0.000178305,7.89155
0.00017982,7.9404
0.000181325,8.07609
0.000182836,8.12588
0.000184322,8.20756
0.000185839,8.33516
0.000187275,8.5357
0.000188832,8.60685
0.000190321,8.58706
0.000191822,8.72236
0.000193261,8.9113
0.000194802,8.99737
0.00019631,9.12992
0.000197821,9.24666
0.000199321,9.30136
0.000200813,9.43521
0.000202309,9.61403
0.000203806,9.67405
0.000205295,9.78959
0.000206797,9.96237
0.000208328,9.99165
0.000209844,10.1214
0.000211285,10.3177
0.000212783,10.3745
0.000214329,10.5563
0.000215814,10.6525
0.000217292,10.7643
0.000218737,10.8897
0.000220271,10.9702
0.000221789,11.0972
0.000223237,11.1952
0.000224731,11.3159
0.000226275,11.4147
0.000227821,11.5888
0.000229327,11.6751
0.000230752,11.7531
0.000232286,11.9545
0.000233812,12.0974
0.000235287,12.1719
0.000236725,12.3598
0.000238267,12.4994
0.00023974,12.57
0.000241235,12.7036
0.000242742,12.8016
0.000244231,12.9961
0.000245753,13.149
0.000247216,13.2521
0.000248722,13.3555
0.00025022,13.5275
0.000251751,13.5828
0.000253275,13.8
0.000254721,13.9132
0.00025625,14.072
0.000257757,14.0833
0.000259258,14.2628
0.000260737,14.3328
0.000262227,14.5469
0.000263752,14.7374
0.000265258,14.8752
0.000266734,14.9282
0.00026822,15.0509
0.000269724,15.3086
0.000271228,15.3642
0.000272722,15.5377
0.000274222,15.5918
0.000275718,15.7824
0.00027725,15.9821
0.000278728,16.0869
0.000280221,16.2367
0.00028173,16.3708
0.00028324,16.7155
0.000284747,16.6961
0.000286234,16.8113
0.00028773,16.867
0.000289229,17.0626
0.000290741,17.2003
0.000292212,17.37
0.000293721,17.4404
0.000295211,17.5579
0.000296748,17.8768
0.000298224,17.9467
0.00029972,18.0318
0.00030123,18.2106
0.000302723,18.2982
0.000304224,18.5926
0.000305726,18.6978
0.00030723,18.745
0.00030873,18.8735
0.000310234,19.0643
0.000311725,19.242
0.000313241,19.342
0.000314721,19.4527
0.00031622,19.6185
0.000317699,19.886
0.000319208,20.0507
0.000320705,19.9868
0.000322219,20.2355
0.000323728,20.4257
0.000325203,20.4776
0.000326741,20.7296
0.000328226,20.8379
0.000329717,21.0124
0.00033122,21.2322
0.000332722,21.3241
0.000334214,21.4342
0.00033572,21.5852
0.000337231,21.9191
0.00033872,21.9159
0.00034023,22.0557
0.000341711,22.3976
0.00034319,22.4717
0.000344717,22.727
0.000346221,22.8811
0.000347705,23.0087
0.000349224,23.1575
0.000350732,23.2947
0.000352243,23.4762
0.000353711,23.5592
0.000355216,23.7977
0.000356737,23.9629
0.000358241,24.153
0.000359711,24.2307
0.000361219,24.5056
0.000362734,24.5575
0.0003642,24.8118
0.000365702,24.9785
0.000367221,25.13
0.000368721,25.2459
0.000370208,25.3255
0.000371713,25.4506
0.000373204,25.6904
0.000374706,25.8135
0.000376236,25.9349
0.000377719,26.0816
0.000379222,26.4367
0.000380707,26.435
0.000382203,26.6728
0.000383698,26.7615
0.000385202,26.9479
0.000386689,27.1746
0.000388198,27.2936
0.000389689,27.444
0.000391186,27.616
0.000392708,27.8556
0.000394215,27.7994
0.000395726,28.0815
0.000397187,28.2142
0.000398722,28.5006
0.000400209,28.5721
0.000401707,28.7542
0.000403203,29.0052
0.000404688,29.1467
0.000406204,29.386
0.000407702,29.5791
0.000409193,29.6988
0.00041071,30.0361
0.000412182,30.0926
0.000413685,30.3211
0.000415188,30.4561
0.000416689,30.6358
0.000418214,30.8719
0.000419722,30.9662
0.000421194,31.2269
0.000422709,31.3386
0.000424196,31.4202
0.000425693,31.55
0.000427205,31.5886
0.000428697,31.8177
0.000430189,31.8616
0.000431699,32.0809
0.000433187,32.1504
0.000434683,32.2841
0.000436175,32.489
0.000437687,32.5869
0.000439187,32.7942
0.000440669,32.9436
0.000442203,33.0691
0.000443711,33.2946
0.000445187,33.4195
0.00044668,33.5557
0.00044821,33.7538
0.000449718,33.9659
0.000451215,34.0557
0.000452691,34.1439
0.000454212,34.2834
0.000455701,34.411
0.00045719,34.663
0.00045868,34.7447
0.000460185,34.9074
0.00046168,35.094
0.000463184,35.2347
0.00046468,35.3977
0.000466196,35.5473
0.000467708,35.7335
0.000469181,35.9079
0.00047069,36.0654
0.000472202,36.3747
0.000473683,36.4157
0.000475189,36.6393
0.00047669,36.7777
0.000478177,36.8766
0.000479708,37.1885
0.000481198,37.3195
0.000482663,37.3933
0.000484193,37.6446
0.000485667,37.7345
0.000487206,37.952
0.000488665,38.159
0.000490173,38.3064
0.000491713,38.4551
0.000493233,38.6273
0.000494676,38.8475
0.000496246,38.9597
0.000497735,39.0791
0.00049924,39.2212
0.000500687,39.3425
0.000502225,39.3927
0.000503749,39.6675
0.000505254,39.6936
0.000506681,39.904
0.000508167,40.003
0.000509734,40.2864
0.000511245,40.4795
0.000512703,40.4651
0.000514153,40.6325
0.000515667,40.8877
0.000517217,40.9599
0.00051873,41.115
0.000520206,41.1872
0.00052167,41.3631
0.000523237,41.4284
0.000524747,41.6329
0.000526185,41.7618
0.000527681,41.8101
0.000529224,41.922
0.000530729,42.1598
0.000532154,42.2873
0.000533702,42.3346
0.000535234,42.4994
0.000536742,42.5979
0.000538189,42.5855
0.000539748,42.7913
0.000541251,42.8997
0.000542746,43.0535
0.00054421,43.1931
0.000545716,43.2818
0.000547247,43.4609
0.000548745,43.5254
0.000550233,43.7061
0.000551705,43.768
0.000553246,43.8933
0.00055472,44.0507
0.000556226,44.0982
0.000557687,44.266
0.00055924,44.4936
0.000560735,44.5808
0.000562204,44.6665
0.000563736,44.7827
0.000565242,44.9863
0.000566723,45.0937
0.000568251,45.2074
0.000569708,45.3022
0.000571251,45.4213
0.000572729,45.6537
0.00057424,45.7087
0.000575728,45.8942
0.000577222,45.9422
0.000578724,46.0336
0.000580206,46.2273
0.000581695,46.3546
0.000583222,46.571
0.00058473,46.6765
0.000586235,46.8913
0.000587696,46.9629
0.000589237,47.1508
0.000590736,47.2676
0.000592228,47.4249
0.00059372,47.5566
0.000595237,47.7164
0.000596736,47.9196
0.000598229,48.094
0.000599726,48.1944
0.000601218,48.3301
0.000602715,48.6355
0.000604227,48.8009
0.000605691,48.9086
0.000607224,49.0886
0.000608737,49.1693
0.000610216,49.294
0.000611716,49.4195
0.000613229,49.7562
0.000614742,49.6761
0.000616227,49.8677
0.000617677,50.0541
0.000619217,50.064
0.000620724,50.28
0.000622223,50.4015
0.000623709,50.6094
0.00062521,50.6549
0.000626719,50.9747
0.000628209,51.1962
0.000629715,51.4749
0.000631188,51.5908
0.000632692,51.9125
0.000634212,52.0276
0.000635706,52.2428
0.000637195,52.5788
0.00063872,52.6333
0.000640211,52.9384
0.000641715,53.2714
0.000643207,53.3046
0.000644718,53.5572
0.000646211,53.8872
0.000647708,53.9948
0.000649188,54.0694
0.000650691,54.2661
0.000652215,54.3042
0.000653704,54.678
0.000655189,54.8261
0.000656704,55.0958
0.000658212,55.1869
0.000659706,55.4142
0.000661183,55.6111
0.000662734,55.7329
0.000664218,55.9934
0.000665704,56.125
0.000667207,56.1955
0.000668717,56.455
0.000670224,56.5973
0.000671691,56.6861
0.000673208,56.9732
0.000674697,56.9883
0.000676196,57.2165
0.000677687,57.3194
0.000679177,57.5337
0.000680711,57.5871
0.000682202,57.7713
0.000683712,57.8836
0.000685215,58.0232
0.000686704,58.2464
0.000688211,58.3545
0.000689697,58.5067
0.000691196,58.7452
0.000692701,58.8625
0.000694219,59.0672
0.000695705,59.226
0.000697201,59.4332
0.000698689,59.6283
0.000700204,59.7128
0.000701669,59.9268
0.000703202,60.1366
0.000704689,60.3641
0.000706228,60.4778
0.000707709,60.7016
0.000709214,60.8794
0.000710709,61.1403
0.000712212,61.2957
0.000713716,61.39
0.000715185,61.59
0.000716707,61.9015
0.000718192,62.0203
0.000719697,62.2181
0.00072119,62.325
0.000722678,62.5549
0.000724186,62.5935
0.000725698,62.8086
0.000727194,62.9467
0.00072869,63.1307
0.000730194,63.2752
0.000731691,63.5049
0.000733197,63.6016
0.000734684,63.8898
0.000736202,64.0122
0.000737713,64.1794
0.000739197,64.3195
0.000740704,64.5297
0.000742186,64.5503
0.000743685,64.8291
0.000745196,64.839
0.000746689,64.9704
0.00074819,65.2215
0.000749696,65.3355
0.000751216,65.5334
0.000752675,65.7826
0.000754189,65.8608
0.000755697,65.999
0.000757196,66.1564
0.000758713,66.3784
0.000760159,66.5905
0.000761702,66.6344
0.000763212,66.6886
0.000764682,66.8898
0.000766187,67.0533
0.000767677,67.1491
0.000769172,67.3041
0.000770665,67.3635
0.000772167,67.7201
0.000773686,67.744
0.000775181,67.9746
0.000776677,68.0534
0.000778183,68.2129
0.000779694,68.4053
0.000781178,68.5126
0.000782683,68.6811
0.00078418,68.8342
0.00078568,69.0443
0.000787204,69.1899
0.000788679,69.4236
0.00079017,69.549
0.000791651,69.7308
0.000793176,69.8708
0.000794668,70.0147
0.000796166,70.1766
0.000797673,70.468
0.000799175,70.5963
0.000800673,70.8379
0.000802171,70.9172
0.000803681,71.1595
0.0008052,71.2712
0.000806678,71.5221
0.000808175,71.732
0.000809703,71.8381
0.000811191,71.9934
0.000812672,72.2629
0.000814184,72.3928
0.000815663,72.6548
0.00081718,72.7871
0.000818653,72.8833
0.000820146,73.0615
0.000821655,73.3459
0.000823168,73.4724
0.000824671,73.723
0.000826156,73.7025
0.000827664,74.0659
0.000829182,74.2085
0.000830689,74.3412
0.000832165,74.53
0.000833673,74.6936
0.000835174,74.8141
0.000836712,75.0696
0.000838156,75.179
0.000839654,75.3688
0.000841158,75.5388
0.000842675,75.6881
0.000844158,75.7388
0.000845652,76.0028
0.00084717,76.165
0.000848682,76.3131
0.000850199,76.5668
0.000851668,76.7219
0.000853202,76.8878
0.000854682,76.9899
0.000856192,77.201
0.000857683,77.3462
0.000859157,77.6433
0.000860698,77.7386
0.00086215,77.9211
0.000863666,78.1881
0.000865146,78.3709
0.000866638,78.5415
0.000868173,78.7456
0.000869633,78.8226
0.000871164,79.0561
0.000872667,79.2893
0.000874191,79.4736
0.000875666,79.649
0.000877171,79.8745
0.000878675,79.9547
0.000880192,80.1569
0.00088166,80.28
0.000883164,80.5222
0.000884682,80.7053
0.000886183,80.9144
0.000887646,81.1094
0.000889155,81.1785
0.000890655,81.3557
0.000892164,81.544
0.000893643,81.7807
0.000895163,81.9237
0.000896648,82.087
0.000898199,82.3142
0.000899664,82.443
0.000901172,82.607
0.000902667,82.7784
0.000904179,82.9561
0.000905654,83.0711
0.000907144,83.255
0.000908645,83.4165
0.000910185,83.6336
0.000911639,83.7311
0.000913131,83.8769
0.000914663,84.1448
0.000916144,84.2241
0.000917642,84.3957
0.00091917,84.633
0.000920663,84.6961
0.000922166,84.9221
0.000923655,85.0969
0.000925144,85.4227
0.000926652,85.4675
0.000928164,85.638
0.000929645,85.7719
0.000931162,86.0244
0.000932666,86.1232
0.000934157,86.2519
0.00093563,86.2705
0.000937149,86.4268
0.000938646,86.6028
0.000940144,86.7752
0.00094164,87.0457
0.000943133,87.0235
0.000944659,87.1384
0.000946147,87.3536
0.000947673,87.3722
0.000949148,87.6348
0.000950678,87.7746
0.000952163,87.9393
0.000953652,88.0789
0.00095515,88.2012
0.000956638,88.2419
0.000958173,88.3767
0.000959646,88.5865
0.000961154,88.5782
0.000962623,88.9763
0.000964161,88.992
0.000965651,89.0121
0.000967132,89.1655
0.00096862,89.3673
0.00097016,89.3507
0.000971656,89.608
0.000973137,89.6583
0.000974668,89.8734
0.000976118,90.0766
0.000977658,90.1116
0.000979145,90.254
0.000980654,90.2649
0.000982157,90.4759
0.000983629,90.4831
0.000985138,90.6543
0.00098663,90.8905
0.000988136,90.92
0.000989629,90.9293
0.000991118,91.1118
0.000992654,91.2815
0.00099415,91.305
0.000995625,91.4884
0.000997158,91.5941
0.000998686,91.6881
0.00100014,91.7244
0.00100163,91.8215
0.00100314,91.9972
0.00100464,92.0907
0.00100613,92.1865
0.00100762,92.2718
0.00100914,92.4214
0.00101063,92.5312
0.0010121,92.7077
0.00101362,92.6736
0.00101516,92.8472
0.00101664,92.9326
0.00101815,92.8855
0.00101961,93.0459
0.00102114,93.0683
0.00102267,93.2539
0.00102413,93.3612
0.00102564,93.552
0.00102715,93.392
0.00102864,93.6295
0.00103014,93.7153
0.00103159,93.8385
0.00103312,93.8716
0.00103461,93.9469
0.00103613,94.1145
0.00103762,94.2441
0.00103915,94.3092
0.00104063,94.3514
0.00104215,94.427
0.00104362,94.4969
0.00104515,94.6118
0.00104664,94.6721
0.00104815,94.775
0.00104963,94.855
0.00105112,94.935
0.00105265,94.9527
0.00105412,95.1037
0.00105559,95.0739
0.00105713,95.0656
0.00105862,95.1214
0.00106013,95.3731
0.00106158,95.4187
0.00106313,95.5646
0.0010646,95.494
0.00106612,95.6308
0.00106761,95.654
0.00106914,95.7878
0.00107064,95.8564
0.00107215,95.8865
0.00107361,95.95
0.0010751,96.0407
0.00107663,96.03
0.00107812,96.108
0.00107961,96.1912
0.00108112,96.2285
0.00108264,96.2566
0.00108416,96.3684
0.00108559,96.417
0.00108707,96.5016
0.00108862,96.6363
0.00109013,96.5328
0.00109163,96.6035
0.00109306,96.6998
0.00109464,96.7429
0.00109613,96.7919
0.0010976,96.8927
0.00109907,96.9312
0.00110059,96.9735
0.00110209,97.0145
0.00110362,97.0677
0.00110511,97.1037
0.00110662,97.1809
0.00110814,97.2201
0.0011096,97.2517
0.00111112,97.3079
0.00111262,97.33
0.00111412,97.4109
0.00111563,97.3419
0.00111709,97.4355
0.00111863,97.3916
0.00112014,97.5101
0.00112162,97.4693
0.00112309,97.5397
0.0011246,97.5448
0.00112613,97.5938
0.00112762,97.5834
0.00112909,97.6801
0.00113055,97.628
0.00113211,97.6852
0.00113362,97.7132
0.00113505,97.6563
0.00113655,97.7725
0.00113811,97.7638
0.00113962,97.771
0.00114108,97.845
0.00114256,97.7397
0.00114412,97.8028
0.00114565,97.793
0.00114711,97.8753
0.00114854,97.9122
0.0011501,97.9192
0.0011516,97.9746
0.00115312,97.9936
0.00115454,97.9842
0.00115606,97.93
0.0011576,98.0376
0.0011591,98.1239
0.00116056,98.0448
0.00116205,98.0185
0.00116357,98.0401
0.00116507,98.0038
0.00116655,98.0709
0.00116804,98.0871
0.00116958,98.028
0.00117109,98.0486
0.00117256,98.0356
0.00117403,98.0118
0.00117556,98.0296
0.00117707,98.0416
0.00117855,98.0489
0.00118002,98.1513
0.00118158,98.0111
0.00118303,98.047
0.00118454,97.9125
0.00118603,97.9677
0.00118754,98.0
0.00118908,97.9804
0.00119055,98.0054
0.00119205,97.9746
0.00119355,97.9652
0.00119506,98.0056
0.00119654,97.9212
0.00119804,97.9533
0.00119955,97.9469
0.00120107,97.9211
0.00120256,98.0243
0.00120403,97.9171
0.00120552,97.9034
0.00120704,97.9656
0.00120855,97.9685
0.00121004,97.855
0.00121153,97.7824
0.00121308,97.8912
0.00121455,97.8463
0.00121607,97.8369
0.00121759,97.8263
0.0012191,97.8628
0.00122057,97.8728
0.00122201,97.7572
0.00122352,97.8341
0.00122501,97.8378
0.00122653,97.7391
0.00122803,97.7145
0.00122954,97.7062
0.00123105,97.667
0.00123256,97.798
0.00123403,97.7125
0.00123552,97.6412
0.00123705,97.5571
0.00123856,97.5975
0.00124003,97.7245
0.00124152,97.6409
0.00124302,97.513
0.00124453,97.5151
0.00124601,97.5698
0.00124751,97.4798
0.00124902,97.4599
0.00125053,97.4527
0.00125202,97.5617
0.00125351,97.5463
0.00125504,97.5436
0.00125654,97.5578
0.00125806,97.453
0.00125952,97.4178
0.00126103,97.4373
0.00126253,97.3916
0.00126403,97.4072
0.00126552,97.4957
0.00126701,97.4741
0.00126852,97.4997
0.00127001,97.5411
0.00127154,97.4342
0.00127301,97.4905
0.00127455,97.3213
0.00127603,97.337
0.00127753,97.2447
0.00127901,97.1321
0.00128053,97.0883
0.00128202,97.1964
0.00128352,97.0589
0.00128502,97.0007
0.00128652,97.0702
0.00128801,97.0909
0.00128951,97.0522
0.00129103,96.9567
0.00129253,97.0811
0.00129401,96.9948
0.0012955,97.0162
0.00129699,96.9223
0.00129849,97.0462
0.00130003,97.028
0.0013015,96.8691
0.00130303,97.0075
0.00130451,96.9823
0.00130603,96.936
0.00130753,96.9116
0.00130903,96.9408
0.0013105,96.7337
0.00131203,96.8658
0.00131351,96.8186
0.00131501,96.7517
0.0013165,96.8353
0.00131801,96.8044
0.0013195,96.8101
0.001321,96.8292
0.00132252,96.7669
0.00132402,96.6469
0.0013255,96.6216
0.001327,96.7107
0.00132854,96.6538
0.00133007,96.6374
0.00133155,96.547
0.00133301,96.6115
0.0013345,96.5544
0.00133602,96.4644
0.00133752,96.4276
0.00133899,96.5269
0.0013405,96.4675
0.00134201,96.4827
0.00134353,96.3752
0.00134499,96.3402
0.0013465,96.2952
0.00134803,96.3884
0.00134953,96.3129
0.00135101,96.2172
0.0013525,96.2093
0.00135401,96.1768
0.00135553,96.1823
0.001357,96.1569
0.00135849,96.0332
0.00135999,96.0223
0.00136152,96.0699
0.00136299,95.996
0.00136449,95.9735
0.00136598,95.922
0.00136749,95.8499
0.00136898,95.8924
0.00137049,95.8812
0.00137201,95.8029
0.00137349,95.753
0.001375,95.8646
0.0013765,95.8141
0.00137802,95.653
0.00137951,95.6381
0.00138099,95.575
0.00138251,95.7028
0.001384,95.4975
0.00138547,95.4561
0.00138701,95.4368
0.00138849,95.4572
0.00138998,95.354
0.00139152,95.384
0.00139296,95.2696
0.00139448,95.3174
0.00139601,95.2041
0.00139751,95.1715
0.00139899,95.0935
0.0014005,95.1487
0.00140201,95.1477
0.00140352,95.023
0.00140501,95.1113
0.00140649,95.0802
0.00140799,94.9847
0.00140948,94.9261
0.00141098,94.8892
0.00141247,94.8336
0.00141397,94.8065
0.00141552,94.7526
0.00141701,94.8674
0.00141848,94.7753
0.00142001,94.7419
0.00142152,94.7649
0.00142301,94.6326
0.00142449,94.708
0.001426,94.6299
0.00142756,94.5847
0.00142904,94.5314
0.00143055,94.5754
0.00143198,94.5001
0.0014335,94.3713
0.00143501,94.4998
0.00143649,94.326
0.001438,94.3451
0.00143953,94.2665
0.00144104,94.2803
0.00144252,94.3935
0.00144404,94.2361
0.00144555,94.1282
0.00144707,94.1733
0.00144854,94.2124
0.00145005,94.154
0.00145153,94.1519
0.00145301,94.1726
0.0014545,94.082
0.00145604,94.051
0.00145756,94.1144
0.00145905,94.08
0.00146054,93.9271
0.00146201,93.9932
0.0014635,94.0605
0.00146502,94.016
0.00146654,93.8979
0.00146804,94.0198
0.0014695,93.8842
0.00147103,93.9145
0.00147256,93.9252
0.00147403,93.9211
0.00147548,93.9405
0.00147704,93.9339
0.00147853,93.7492
0.00148003,93.7686
0.00148156,93.8532
0.00148303,93.9124
0.00148454,93.6516
0.00148603,93.687
0.00148748,93.6345
0.00148903,93.7147
0.00149054,93.6837
0.00149201,93.7067
0.00149351,93.7053
0.00149504,93.606
0.00149654,93.6399
0.00149803,93.708
0.00149949,93.6687
0.00150106,93.5753
0.00150254,93.6837
0.00150403,93.6173
0.00150553,93.4068
0.00150704,93.5551
0.00150854,93.5547
0.00151002,93.4174
0.00151154,93.4748
0.00151302,93.4338
0.00151454,93.5358
0.00151603,93.4066
0.00151751,93.4037
0.00151904,93.3339
0.00152052,93.2955
0.00152205,93.2823
0.00152355,93.366
0.00152505,93.3074
0.00152653,93.3181
0.00152803,93.3023
0.00152954,93.3631
0.00153104,93.3191
0.00153252,93.1959
0.00153402,93.2868
0.00153553,93.1616
0.00153701,93.0968
0.00153855,93.1951
0.00154001,93.1737
0.00154155,93.1601
0.00154308,93.1123
0.00154455,93.0782
0.00154606,93.1193
0.00154755,93.2252
0.00154906,93.0567
0.00155057,93.0315
0.00155204,92.974
0.00155354,92.9922
0.00155504,92.9334
0.00155655,92.8982
0.00155804,92.9663
0.00155955,92.9332
0.00156104,92.9764
0.00156255,92.9336
0.00156405,92.8158
0.00156555,92.8564
0.00156705,92.8434
0.00156856,92.8529
0.00157004,92.8848
0.00157155,92.9052
0.00157305,92.8622
0.00157455,92.8116
0.00157604,92.8427
0.00157754,92.8234
0.00157904,92.9321
0.00158054,92.7416
0.00158203,92.807
0.00158352,92.815
0.00158503,92.8262
0.00158655,92.9368
0.00158802,92.7749
0.00158952,92.7109
0.00159104,92.8223
0.00159253,92.8419
0.00159404,92.7859
0.00159553,92.7399
0.00159705,92.7386
0.00159853,92.7408
0.00160003,92.7805
0.00160154,92.7201
0.00160302,92.7029
0.00160453,92.7845
0.00160602,92.6971
0.00160756,92.666
0.00160902,92.7021
0.00161053,92.6685
0.00161204,92.7296
0.00161354,92.7491
0.00161504,92.5164
0.00161654,92.6613
0.00161806,92.6642
0.00161953,92.7018
0.00162103,92.6689
0.0016225,92.6713
0.00162403,92.6848
0.00162552,92.619
0.00162702,92.6194
0.00162853,92.6299
0.00163002,92.5708
0.00163153,92.5728
0.00163303,92.6165
0.00163453,92.581
0.001636,92.5413
0.00163754,92.4859
0.00163903,92.5754
0.00164051,92.5792
0.00164203,92.6085
0.00164353,92.5369
0.00164502,92.5413
0.00164651,92.5389
0.00164802,92.6142
0.00164951,92.4996
0.00165102,92.4791
0.00165252,92.5637
0.00165399,92.5093
0.00165551,92.5817
0.001657,92.6275
0.00165854,92.5684
0.00166001,92.5273
0.00166155,92.525
0.00166304,92.474
0.00166452,92.5281
0.00166603,92.4592
0.00166752,92.581
0.00166902,92.4624
0.00167051,92.5427
0.00167202,92.3989
0.00167352,92.4227
0.00167501,92.5333
0.0016765,92.4852
0.00167801,92.5117
0.00167952,92.5071
0.00168102,92.4143
0.00168253,92.3623
0.00168401,92.4859
0.00168552,92.473
0.00168702,92.3065
0.00168852,92.4639
0.00169002,92.3655
0.00169152,92.4132
0.00169301,92.4328
0.0016945,92.4434
0.00169598,92.3881
0.00169748,92.363
0.00169902,92.3943
0.00170049,92.4107
0.00170198,92.4372
0.00170349,92.3002
0.00170502,92.3268
0.00170651,92.4575
0.00170801,92.3576
0.00170949,92.399
0.00171103,92.3456
0.00171253,92.3978
0.00171401,92.3961
0.00171552,92.3474
0.00171701,92.2888
0.0017185,92.3211
0.00172,92.4497
0.00172151,92.3692
0.00172301,92.4126
0.00172451,92.3467
0.00172598,92.4114
0.00172748,92.3522
0.00172902,92.322
0.00173047,92.3144
0.001732,92.3508
0.00173351,92.4133
0.00173501,92.2747
0.00173651,92.3577
0.00173799,92.4135
0.00173951,92.2988
0.00174102,92.346
0.0017425,92.3082
0.00174399,92.2563
0.0017455,92.3449
0.00174701,92.2296
0.0017485,92.2957
0.00174999,92.3299
0.00175149,92.2678
0.001753,92.3882
0.00175451,92.3553
0.001756,92.405
0.00175749,92.2992
0.001759,92.3233
0.00176052,92.4105
0.001762,92.3642
0.00176351,92.4194
0.001765,92.3227
0.00176648,92.4426
0.00176799,92.3456
0.00176948,92.3734
0.00177099,92.3213
0.0017725,92.3702
0.00177398,92.3876
0.00177548,92.4187
0.00177699,92.3618
0.0017785,92.3733
0.00178,92.4378
0.0017815,92.4212
0.001783,92.3016
0.00178449,92.364
0.001786,92.3999
0.00178752,92.3218
0.00178899,92.3908
0.00179048,92.349
0.00179199,92.3963
0.00179346,92.4507
0.00179499,92.4925
0.0017965,92.5017
0.001798,92.4562
0.00179949,92.3952
0.00180098,92.468
0.0018025,92.4638
0.00180401,92.5181
0.00180553,92.5642
0.00180699,92.5588
0.0018085,92.5072
0.00180997,92.5819
0.00181148,92.623
0.00181297,92.477
0.00181449,92.5707
0.00181599,92.5241
0.00181748,92.5958
0.00181897,92.5612
0.00182046,92.5753
0.00182199,92.6577
0.00182348,92.5881
0.00182496,92.5938
0.0018265,92.6527
0.00182798,92.6385
0.00182949,92.641
0.00183099,92.6529
0.00183251,92.6123
0.001834,92.6064
0.00183549,92.6465
0.00183697,92.7408
0.00183847,92.7309
0.00183998,92.5784
0.00184149,92.6351
0.00184296,92.7007
0.00184449,92.6058
0.00184597,92.6365
0.00184748,92.6832
0.00184896,92.7162
0.00185049,92.7188
0.00185198,92.6617
0.00185351,92.7393
0.00185498,92.7782
0.00185649,92.6995
0.00185799,92.7306
0.00185949,92.7234
0.00186099,92.6942
0.00186247,92.767
0.00186396,92.7679
0.00186547,92.6985
0.00186695,92.8069
0.00186848,92.7926
0.00186998,92.7
0.00187147,92.7464
0.00187299,92.8269
0.00187445,92.7563
0.00187596,92.7959
0.00187749,92.7944
0.00187898,92.7354
0.00188047,92.8041
0.00188195,92.8544
0.00188349,92.7958
0.00188496,92.8291
0.00188648,92.7552
0.00188797,92.7624
0.00188947,92.8545
0.00189097,92.8212
0.00189246,92.7994
0.00189395,92.8221
0.00189545,92.879
0.00189696,92.8527
0.00189848,92.8122
0.00189995,92.8189
0.00190147,92.9463
0.00190297,92.9938
0.00190451,92.9423
0.00190597,92.9502
0.00190747,92.9958
0.00190898,92.833
0.00191044,92.8963
0.00191194,92.9194
0.00191345,92.9223
0.00191494,92.9436
0.00191646,92.9523
0.00191794,92.9457
0.00191948,93.0115
0.00192097,93.0708
0.00192246,92.9496
0.00192395,93.0222
0.00192546,93.0268
0.00192698,93.11
0.00192845,92.8882
0.00192994,93.0819
0.00193146,93.0312
0.00193297,93.0906
0.00193445,93.0525
0.00193592,93.0856
0.00193745,93.164
0.00193896,93.113
0.00194047,93.1284
0.00194195,93.167
0.00194346,93.2087
0.00194496,93.1418
0.00194649,93.1243
0.00194796,93.1959
0.00194949,93.2381
0.00195097,93.1883
0.00195249,93.2061
0.00195395,93.0921
0.00195544,93.3212
0.00195696,93.1961
0.00195847,93.2579
0.00195994,93.1896
0.00196143,93.3864
0.00196296,93.2287
0.00196444,93.3577
0.00196596,93.4102
0.00196745,93.3454
0.00196896,93.4687
0.00197047,93.4283
0.00197196,93.4695
0.00197343,93.436
0.00197496,93.4814
0.00197648,93.4229
0.00197797,93.4914
0.00197944,93.5206
0.00198096,93.5586
0.00198242,93.571
0.00198395,93.4939
0.00198544,93.5953
0.00198693,93.5923
0.00198846,93.6437
0.00198994,93.6145
0.00199147,93.6578
0.00199294,93.6778
0.00199447,93.551
0.00199596,93.7109
0.00199746,93.7248
0.00199895,93.6608
0.00200046,93.6664
0.00200196,93.7004
0.00200342,93.6514
0.00200492,93.8025
0.00200644,93.7417
0.00200795,93.7413
0.00200946,93.7073
0.00201091,93.7122
0.00201245,93.7485
0.00201396,93.7706
0.00201544,93.6945
0.00201693,93.744
0.00201845,93.8303
0.00201995,93.8013
0.00202146,93.8363
0.00202292,93.8592
0.00202442,93.7787
0.00202597,93.9023
0.00202746,93.9305
0.00202894,93.9697
0.00203042,93.971
0.00203194,93.9362
0.00203345,93.8919
0.00203495,94.0956
0.00203637,93.9945
0.00203794,94.0873
0.00203944,94.0533
0.00204093,94.1008
0.00204244,93.9372
0.00204395,94.159
0.00204548,94.02
0.00204695,94.0915
0.00204842,93.9952
0.00204997,94.0979
0.00205143,94.0136
0.00205294,94.0991
0.00205437,94.1213
0.00205595,94.1532
0.00205744,94.1464
0.00205889,94.1155
0.00206043,94.2
0.00206193,94.1396
0.00206345,94.2446
0.00206495,94.2181
0.00206635,94.2737
0.00206793,94.2225
0.00206944,94.2626
0.00207095,94.2747
0.00207239,94.2975
0.00207395,94.2335
0.00207544,94.3973
0.00207689,94.291
0.00207839,94.2749
0.0020799,94.3928
0.00208143,94.2328
0.00208291,94.3081
0.00208439,94.2506
0.00208588,94.3923
0.00208743,94.3462
0.00208893,94.2169
0.0020904,94.3544
0.00209188,94.4608
0.00209344,94.3551
0.00209494,94.3669
0.00209638,94.4459
0.00209787,94.3261
0.00209941,94.4895
0.00210092,94.3435
0.00210239,94.3692
0.00210388,94.3792
0.00210539,94.36
0.0021069,94.3824
0.00210836,94.4409
0.00210986,94.2873
0.00211135,94.3443
0.00211287,94.3227
0.00211436,94.226
0.00211587,94.1381
0.00211736,94.1798
0.00211888,94.1848
0.00212038,94.2243
0.00212187,94.0164
0.00212326,-0.00829928
0.00212488,-0.210338
0.00212638,-0.161561
0.00212785,-0.126186
0.00212935,-0.230355
0.00213086,-0.209164
0.00213237,-0.0849005
0.00213385,-0.0198504
0.00213535,-0.192789
0.00213689,-0.128784
0.00213839,-0.267348
0.00213987,-0.199743
0.00214135,-0.130573
0.00214285,-0.0964684
0.00214437,-0.184669
0.00214586,-0.131671
0.00214736,-0.15228
0.00214887,-0.182095
0.00215036,-0.198976
0.00215185,-0.260816
0.00215283,-0.209538