File: data/PrimaryData/Unknown_Resin/Tensile_test_7.csv
Displacement,Load
-1.13191e-16,0.0689161
1.29941e-06,0.312271
3.32935e-06,0.508885
5.31447e-06,0.71821
7.30904e-06,0.928664
9.31049e-06,1.09795
1.13263e-05,1.18432
1.33155e-05,1.18894
1.53235e-05,1.28909
1.73136e-05,1.39559
1.93181e-05,1.50902
2.1318e-05,1.64499
2.33342e-05,1.80501
2.5329e-05,1.83397
2.73179e-05,1.99287
2.93205e-05,2.08042
3.13345e-05,2.13578
3.32984e-05,2.35718
3.5308e-05,2.40921
3.73061e-05,2.58695
3.93089e-05,2.63104
4.13199e-05,2.77771
4.33097e-05,2.85742
4.53135e-05,3.01223
4.73137e-05,3.1517
4.93221e-05,3.32428
5.1324e-05,3.51538
5.33233e-05,3.57151
5.53124e-05,3.73559
5.7311e-05,3.83468
5.92955e-05,3.85037
6.12918e-05,3.86289
6.33192e-05,3.99247
6.53037e-05,4.2107
6.73016e-05,4.30495
6.93178e-05,4.45082
7.1324e-05,4.52055
7.33124e-05,4.67842
7.53221e-05,4.82623
7.72894e-05,5.05266
7.9309e-05,5.09259
8.13174e-05,5.21876
8.32933e-05,5.39072
8.53124e-05,5.51419
8.7306e-05,5.68886
8.93067e-05,5.86132
9.12976e-05,5.95798
9.33101e-05,6.21001
9.53199e-05,6.23758
9.73095e-05,6.32972
9.93184e-05,6.6519
0.000101293,6.76784
0.00010331,6.87016
0.000105295,6.90121
0.000107292,7.16808
0.000109285,7.32699
0.00011129,7.42105
0.000113292,7.56165
0.000115309,7.64894
0.00011732,7.8471
0.000119292,7.91639
0.000121287,8.10599
0.000123305,8.29041
0.000125311,8.24379
0.00012729,8.30816
0.000129278,8.58184
0.000131284,8.80883
0.000133284,8.69057
0.000135296,8.87829
0.0001373,8.97718
0.000139278,9.18784
0.000141278,9.31731
0.000143314,9.43869
0.000145307,9.52343
0.000147298,9.70102
0.000149293,9.78953
0.00015129,9.98454
0.000153284,10.1391
0.000155278,10.2876
0.000157264,10.3375
0.000159291,10.5685
0.000161296,10.7102
0.000163287,10.8361
0.000165282,10.9503
0.000167307,11.097
0.000169306,11.2971
0.000171287,11.5174
0.000173286,11.5866
0.000175301,11.8148
0.000177294,12.0404
0.000179285,12.2976
0.000181302,12.4166
0.000183283,12.5778
0.000185278,12.777
0.000187298,12.9855
0.000189272,13.2271
0.00019129,13.4246
0.000193291,13.6342
0.000195274,13.9098
0.000197296,14.0139
0.000199277,14.2084
0.000201265,14.4734
0.00020327,14.749
0.000205269,14.8592
0.000207255,15.1475
0.000209285,15.3679
0.000211269,15.5612
0.000213282,15.7704
0.000215303,15.9887
0.000217278,16.1133
0.000219275,16.4361
0.000221292,16.6142
0.00022328,16.7834
0.000225283,17.0421
0.000227263,17.3904
0.000229264,17.5549
0.000231273,17.7624
0.000233258,18.0118
0.000235292,18.2567
0.000237275,18.4458
0.000239275,18.6506
0.000241289,18.9395
0.000243268,19.0488
0.000245275,19.3578
0.000247261,19.5721
0.000249265,19.729
0.000251277,20.0034
0.000253258,20.3001
0.00025526,20.5485
0.000257263,20.6858
0.000259276,21.0441
0.000261289,21.2137
0.000263246,21.5086
0.000265247,21.7483
0.000267263,21.9625
0.000269253,22.238
0.000271244,22.4701
0.000273284,22.5747
0.000275254,22.863
0.000277233,23.112
0.000279268,23.3398
0.000281263,23.5715
0.000283254,23.7923
0.000285277,23.9819
0.000287263,24.2166
0.000289256,24.4648
0.000291255,24.7736
0.00029326,24.9288
0.000295253,25.267
0.000297252,25.4062
0.000299229,25.6942
0.00030125,25.8738
0.000303257,26.1662
0.000305265,26.3603
0.000307261,26.6734
0.000309265,26.9523
0.000311253,27.0752
0.000313257,27.4613
0.00031526,27.7095
0.000317273,27.8341
0.000319255,28.1245
0.000321237,28.4923
0.00032326,28.6427
0.00032524,28.8856
0.000327256,29.1879
0.000329268,29.3244
0.000331257,29.6167
0.000333269,29.7395
0.000335262,30.0241
0.000337247,30.3119
0.000339271,30.5809
0.000341253,30.7591
0.000343231,30.956
0.000345252,31.1986
0.000347251,31.5537
0.000349236,31.8903
0.000351244,32.0752
0.000353251,32.4938
0.000355249,32.6309
0.000357237,32.897
0.000359253,33.322
0.000361273,33.4871
0.000363244,33.6867
0.00036525,33.9642
0.00036723,34.1348
0.000369222,34.3889
0.000371227,34.5536
0.000373244,34.8587
0.000375233,35.1151
0.000377233,35.3827
0.00037924,35.661
0.000381235,35.949
0.000383237,36.3973
0.000385222,36.5889
0.000387228,36.854
0.000389215,37.048
0.000391248,37.2794
0.000393217,37.6155
0.000395229,37.851
0.00039722,38.0978
0.000399245,38.2763
0.000401233,38.5456
0.000403241,38.8593
0.000405243,39.171
0.000407243,39.4428
0.000409236,39.7428
0.000411225,39.9732
0.000413225,40.3672
0.00041523,40.7086
0.00041721,40.973
0.000419222,41.1944
0.000421229,41.5159
0.000423225,41.6413
0.000425249,41.8643
0.000427239,41.9187
0.000429237,42.3457
0.000431244,42.4697
0.000433229,42.6421
0.000435231,42.8653
0.000437218,42.9796
0.000439224,43.1827
0.000441214,43.3236
0.000443227,43.4732
0.000445221,43.6509
0.000447223,43.693
0.000449221,43.8898
0.000451233,44.1254
0.00045323,44.211
0.00045523,44.4437
0.000457209,44.6024
0.000459216,44.7566
0.000461212,45.0107
0.000463208,45.1839
0.000465215,45.4604
0.000467205,45.6981
0.000469212,45.9112
0.000471228,45.9915
0.000473226,46.2588
0.000475218,46.4598
0.000477228,46.6334
0.00047921,47.0107
0.000481215,47.1229
0.00048321,47.3829
0.000485212,47.5851
0.000487193,47.652
0.000489207,47.9842
0.000491201,48.0923
0.000493244,48.3305
0.000495216,48.4957
0.000497225,48.6108
0.000499215,48.7431
0.000501223,48.97
0.000503224,49.0863
0.000505203,49.2532
0.000507219,49.4797
0.000509211,49.7088
0.000511181,49.6725
0.000513201,50.157
0.000515201,50.1733
0.000517211,50.3256
0.000519216,50.6924
0.000521216,50.8542
0.000523193,50.9669
0.000525216,51.2434
0.00052721,51.4922
0.000529205,51.735
0.000531202,51.8541
0.000533207,52.1187
0.000535202,52.3466
0.000537185,52.481
0.00053919,52.8046
0.000541194,52.8813
0.000543194,53.015
0.000545202,53.2905
0.000547192,53.4454
0.000549205,53.6203
0.000551211,53.8013
0.000553197,54.0268
0.000555193,54.1898
0.000557191,54.4142
0.000559195,54.6807
0.00056118,54.7276
0.000563212,55.0289
0.000565195,55.2939
0.000567192,55.3393
0.0005692,55.4979
0.000571204,55.746
0.000573198,56.0755
0.000575189,56.2025
0.000577195,56.3973
0.000579184,56.557
0.000581175,56.8963
0.000583192,57.0281
0.00058516,57.4314
0.000587207,57.6989
0.000589185,57.9249
0.000591189,58.1098
0.000593196,58.2734
0.000595195,58.4809
0.000597221,58.7839
0.000599207,58.8916
0.000601194,59.164
0.000603187,59.4471
0.000605178,59.6451
0.000607185,59.9233
0.000609153,59.9884
0.000611168,60.34
0.000613205,60.6854
0.000615186,60.729
0.000617177,61.0515
0.00061921,61.3138
0.000621186,61.5138
0.000623193,61.7299
0.000625171,61.8755
0.000627164,62.1792
0.000629167,62.4765
0.000631169,62.7859
0.000633164,62.9731
0.000635168,63.2159
0.000637173,63.526
0.000639183,63.7784
0.000641169,63.985
0.000643189,64.3438
0.000645183,64.5546
0.000647196,64.9393
0.000649196,65.3069
0.000651159,65.5567
0.000653157,65.8006
0.000655185,66.2168
0.000657143,66.5445
0.000659171,66.7781
0.000661171,67.0472
0.000663188,67.4403
0.000665189,67.6453
0.000667175,67.891
0.000669182,68.1468
0.000671199,68.4822
0.000673166,68.8495
0.00067515,69.0623
0.000677154,69.3308
0.000679159,69.4978
0.000681165,69.8404
0.000683158,69.9931
0.000685158,70.4931
0.000687196,70.6809
0.000689164,70.8414
0.000691177,71.2367
0.000693168,71.4579
0.000695152,71.675
0.000697162,71.8611
0.00069916,72.2443
0.000701145,72.4808
0.000703151,72.7507
0.000705149,73.1355
0.000707157,73.3826
0.00070917,73.6726
0.000711168,73.8861
0.000713169,74.1456
0.000715153,74.4372
0.000717171,74.7543
0.000719161,74.8966
0.000721153,75.1739
0.000723153,75.4385
0.000725154,75.799
0.000727128,76.0011
0.000729147,76.2041
0.00073116,76.3813
0.000733145,76.7198
0.000735149,77.094
0.000737162,77.3853
0.000739177,77.4444
0.000741185,77.7783
0.000743159,78.0815
0.00074515,78.3095
0.000747134,78.552
0.000749134,78.766
0.00075115,79.0844
0.000753158,79.3251
0.000755133,79.6909
0.000757159,79.9241
0.000759151,80.1308
0.000761157,80.4243
0.000763139,80.7112
0.000765164,80.9185
0.000767148,81.0896
0.000769144,81.4129
0.000771159,81.6625
0.00077314,81.9313
0.000775137,82.1697
0.000777128,82.4961
0.000779129,82.6998
0.000781145,83.0464
0.00078314,83.1874
0.000785148,83.3993
0.000787142,83.6642
0.000789139,83.8417
0.000791151,84.0893
0.000793139,84.3021
0.000795121,84.5997
0.000797127,84.8179
0.000799126,85.0784
0.000801098,85.2559
0.000803125,85.4256
0.000805147,85.5848
0.000807119,85.9441
0.000809157,86.1151
0.000811147,86.3863
0.000813124,86.5445
0.000815129,86.8918
0.000817133,87.143
0.000819111,87.2884
0.000821119,87.5188
0.000823123,87.7126
0.000825103,87.9484
0.000827121,88.0697
0.000829133,88.2467
0.000831125,88.4453
0.000833138,88.7022
0.000835158,88.9942
0.000837141,89.111
0.000839153,89.3236
0.000841154,89.5278
0.000843119,89.8752
0.000845114,89.8803
0.000847144,90.1461
0.00084915,90.2312
0.000851118,90.485
0.000853154,90.7034
0.000855116,90.8593
0.000857127,91.0713
0.000859126,91.2481
0.000861131,91.3601
0.000863111,91.5963
0.000865136,91.8085
0.000867114,92.0059
0.00086911,92.2393
0.000871105,92.3828
0.000873123,92.5334
0.000875106,92.5947
0.000877118,92.8234
0.000879126,93.055
0.00088111,93.1519
0.000883129,93.3995
0.000885119,93.4655
0.000887118,93.6735
0.00088911,93.6731
0.000891116,93.9081
0.000893104,94.0162
0.000895105,94.2032
0.000897122,94.2962
0.000899105,94.5574
0.000901122,94.6513
0.00090312,94.8401
0.000905141,94.9293
0.00090711,95.1341
0.00090912,95.2085
0.000911108,95.3538
0.000913105,95.4549
0.000915112,95.4753
0.000917119,95.6306
0.00091909,95.7824
0.000921122,95.8622
0.000923119,96.0106
0.000925107,96.1237
0.000927115,96.2874
0.000929129,96.4026
0.000931101,96.4732
0.000933119,96.5452
0.000935108,96.6512
0.000937104,96.79
0.000939114,96.9147
0.000941109,97.0019
0.00094311,97.1176
0.000945096,97.1813
0.000947102,97.2151
0.000949094,97.3433
0.000951101,97.4942
0.000953128,97.6002
0.000955135,97.6347
0.000957105,97.6787
0.000959107,97.7048
0.000961129,97.9248
0.000963085,97.9303
0.000965081,98.1054
0.000967082,98.0191
0.000969073,98.0855
0.000971116,98.2219
0.000973093,98.3154
0.000975099,98.3569
0.000977099,98.5023
0.000979099,98.6075
0.000981117,98.6703
0.000983095,98.6423
0.000985105,98.7297
0.000987103,98.9151
0.000989104,98.8884
0.000991106,98.9797
0.00099309,98.9568
0.000995078,98.9417
0.000997122,99.1322
0.000999097,99.1369
0.00100109,99.2695
0.0010031,99.2602
0.0010051,99.3561
0.00100709,99.2297
0.00100911,99.4065
0.0010111,99.3523
0.00101307,99.5446
0.00101511,99.5456
0.00101711,99.6446
0.00101908,99.7156
0.0010211,99.68
0.0010231,99.6919
0.0010251,99.7132
0.00102709,99.7217
0.00102909,99.7621
0.00103108,99.8086
0.00103308,99.8276
0.00103508,99.7956
0.00103707,99.8751
0.0010391,99.8798
0.00104109,99.9454
0.00104308,99.9914
0.0010451,100.082
0.00104709,100.079
0.00104911,100.091
0.00105108,100.08
0.00105307,100.082
0.00105508,100.097
0.00105705,100.143
0.00105909,100.123
0.00106106,100.107
0.00106307,100.098
0.00106507,100.145
0.00106709,100.177
0.00106909,100.189
0.00107109,100.137
0.0010731,100.231
0.00107507,100.213
0.00107707,100.201
0.00107908,100.181
0.00108106,100.203
0.00108307,100.289
0.00108508,100.253
0.0010871,100.282
0.00108907,100.271
0.00109108,100.268
0.00109307,100.226
0.00109506,100.189
0.00109708,100.208
0.00109909,100.223
0.00110107,100.318
0.00110307,100.269
0.00110506,100.27
0.00110706,100.25
0.00110909,100.222
0.00111107,100.226
0.00111307,100.236
0.00111508,100.098
0.00111707,100.21
0.00111906,100.16
0.00112108,100.202
0.00112305,100.066
0.00112507,100.112
0.00112706,100.112
0.00112907,99.9983
0.00113104,100.046
0.00113307,100.064
0.00113505,100.107
0.00113704,100.004
0.00113906,99.9552
0.00114107,99.9921
0.00114309,100.125
0.00114507,100.045
0.0011471,99.8998
0.00114904,99.8379
0.00115105,99.9432
0.00115307,99.9109
0.00115504,99.9097
0.00115705,100.015
0.00115906,99.8977
0.00116107,99.9051
0.00116306,99.8341
0.00116508,99.822
0.00116706,99.819
0.00116906,99.7552
0.00117108,99.744
0.00117305,99.7714
0.00117508,99.6896
0.00117706,99.6099
0.00117904,99.7076
0.00118104,99.5857
0.00118307,99.6221
0.00118505,99.5328
0.00118704,99.5475
0.00118905,99.6041
0.00119107,99.4701
0.00119305,99.4667
0.00119505,99.3609
0.00119704,99.375
0.00119905,99.3343
0.00120103,99.3625
0.00120303,99.2588
0.00120501,99.3288
0.00120703,99.336
0.00120904,99.2088
0.00121103,99.2009
0.00121304,99.2724
0.00121504,99.1708
0.00121702,99.2397
0.00121905,99.2139
0.00122104,99.1895
0.00122303,99.1606
0.00122503,99.1157
0.00122703,99.1187
0.00122902,99.0526
0.00123103,99.0365
0.00123305,99.0514
0.00123504,98.9372
0.00123704,98.9638
0.00123906,99.0013
0.00124102,98.8531
0.00124302,98.8928
0.00124505,98.9381
0.00124702,98.8414
0.00124903,98.7448
0.00125101,98.8187
0.00125304,98.8282
0.00125505,98.7568
0.00125703,98.7401
0.00125904,98.6345
0.00126102,98.7381
0.00126303,98.7073
0.00126504,98.6451
0.00126704,98.5753
0.00126903,98.4661
0.00127103,98.4728
0.00127304,98.3722
0.00127502,98.3
0.00127703,98.3068
0.00127904,98.2954
0.00128103,98.1413
0.00128303,98.2772
0.00128502,98.2755
0.00128702,98.2138
0.00128905,98.3975
0.00129105,98.2245
0.00129302,98.2224
0.00129501,98.1971
0.00129701,98.3043
0.00129902,98.1605
0.00130104,98.0861
0.00130302,98.1772
0.001305,98.1525
0.00130702,98.1733
0.00130904,98.2241
0.00131101,98.1596
0.00131305,98.2546
0.001315,98.0692
0.00131702,98.1033
0.00131902,98.0742
0.00132102,98.1438
0.001323,98.0682
0.001325,98.0307
0.00132702,98.1092
0.00132901,98.0052
0.00133102,98.1801
0.00133305,97.9769
0.00133502,98.0659
0.00133701,97.9491
0.00133901,98.02
0.00134103,97.9923
0.00134303,97.9723
0.00134502,98.0849
0.00134701,98.0557
0.001349,98.0786
0.00135103,98.1342
0.001353,98.1997
0.00135501,98.1924
0.00135701,98.3998
0.00135901,98.2756
0.00136104,98.2873
0.001363,98.3163
0.001365,98.2794
0.001367,98.3259
0.00136901,98.3014
0.00137102,98.4162
0.001373,98.2941
0.001375,98.422
0.001377,98.39
0.00137899,98.3368
0.00138102,98.3434
0.001383,98.3711
0.00138502,98.4466
0.001387,98.3536
0.001389,98.2827
0.001391,98.3255
0.00139301,98.1922
0.00139501,98.1848
0.00139702,98.2169
0.00139897,98.1003
0.00140102,98.1309
0.00140302,98.151
0.00140503,98.0578
0.00140702,98.0061
0.00140902,97.9741
0.001411,97.9996
0.00141302,97.9815
0.00141498,98.0539
0.00141695,97.9252
0.00141902,97.8363
0.00142099,97.8793
0.001423,97.8315
0.00142501,97.8606
0.00142698,97.8529
0.001429,97.7831
0.001431,97.6929
0.00143301,97.7078
0.00143499,97.6717
0.00143701,97.5113
0.00143899,97.5134
0.00144096,97.5678
0.001443,97.537
0.00144496,97.4452
0.00144699,97.5116
0.00144898,97.4936
0.001451,97.3961
0.00145298,97.3103
0.00145499,97.3079
0.00145699,97.4163
0.00145897,97.2704
0.00146098,97.2677
0.00146299,97.2119
0.00146497,97.1919
0.00146696,97.2454
0.00146898,97.2249
0.001471,97.2004
0.00147299,97.1467
0.001475,97.1983
0.001477,97.0622
0.00147899,97.1277
0.001481,97.0808
0.00148297,97.0764
0.00148499,97.0502
0.00148697,97.1329
0.00148899,96.9508
0.00149095,97.0669
0.00149299,96.9678
0.00149496,96.9377
0.00149697,96.8464
0.00149901,96.8892
0.00150098,96.9467
0.00150297,96.8233
0.001505,96.7259
0.00150697,96.9239
0.00150899,96.8099
0.00151096,96.7993
0.00151297,96.8863
0.00151495,96.7405
0.00151696,96.7617
0.001519,96.8315
0.00152098,96.7857
0.00152299,96.7665
0.00152499,96.7435
0.00152699,96.7722
0.00152896,96.7763
0.00153097,96.7085
0.00153296,96.6954
0.00153495,96.7556
0.00153696,96.7673
0.00153895,96.8869
0.00154097,96.8411
0.00154296,96.8168
0.00154496,96.9269
0.00154699,96.8927
0.00154898,96.9414
0.00155098,96.9795
0.00155296,96.9772
0.00155498,96.9417
0.00155694,97.0217
0.00155895,96.9356
0.00156096,96.9664
0.00156299,96.9252
0.00156494,97.0238
0.00156696,96.9937
0.00156898,97.0419
0.00157098,97.0536
0.001573,96.9847
0.00157495,97.1248
0.00157695,97.0715
0.00157896,97.0762
0.00158097,97.096
0.00158295,97.0561
0.00158494,97.0423
0.00158696,97.0624
0.00158895,97.0385
0.00159095,97.0756
0.00159298,97.1152
0.00159495,97.0843
0.00159699,97.0449
0.00159896,97.182
0.00160095,97.1468
0.00160296,97.1299
0.00160494,97.1257
0.00160693,97.1629
0.00160894,97.2392
0.00161095,97.1807
0.00161296,97.1765
0.00161497,97.2056
0.00161697,97.1635
0.00161898,97.2649
0.00162095,97.1441
0.00162296,97.2318
0.00162494,97.2007
0.00162694,97.3341
0.00162894,97.2971
0.00163093,97.2653
0.00163294,97.2339
0.00163492,97.4193
0.00163696,97.2838
0.00163888,97.4038
0.00164094,97.3908
0.00164294,97.4115
0.00164493,97.4587
0.00164694,97.3929
0.00164895,97.3811
0.00165095,97.4482
0.00165294,97.4532
0.00165494,97.482
0.00165695,97.5279
0.00165895,97.4648
0.00166095,97.6349
0.00166296,97.7138
0.00166495,97.476
0.00166697,97.693
0.00166894,97.716
0.00167095,97.6858
0.00167297,97.6698
0.00167496,97.7616
0.00167692,97.649
0.00167894,97.7161
0.00168095,97.7753
0.00168293,97.7901
0.00168493,97.7988
0.00168693,97.732
0.00168894,97.8701
0.00169095,97.8163
0.00169293,97.8559
0.00169496,97.8957
0.00169693,97.9232
0.00169892,97.938
0.00170091,97.9816
0.00170293,97.9071
0.00170493,97.8428
0.00170693,98.2116
0.00170892,98.0556
0.00171096,97.988
0.00171292,97.9999
0.00171492,98.0849
0.00171695,98.0638
0.00171894,98.0703
0.00172095,98.0527
0.00172293,98.1078
0.00172492,98.0558
0.00172691,97.9408
0.00172893,98.0007
0.00173093,98.0706
0.00173295,98.1378
0.00173493,98.112
0.00173696,98.0743
0.00173893,98.0937
0.00174095,98.1168
0.00174292,98.2085
0.00174493,98.2141
0.00174691,98.1563
0.00174893,98.1312
0.00175093,98.1689
0.00175292,98.2716
0.00175489,98.2627
0.00175691,98.225
0.00175892,98.3068
0.00176093,98.35
0.00176294,98.3727
0.00176494,98.3314
0.0017669,98.2945
0.00176891,98.3112
0.00177091,98.3211
0.0017729,98.3499
0.00177492,98.3917
0.00177691,98.4292
0.0017789,98.4004
0.00178093,98.4226
0.00178295,98.4433
0.00178492,98.6169
0.00178693,98.4309
0.00178891,98.5566
0.00179091,98.5053
0.0017929,98.552
0.00179491,98.6005
0.00179689,98.5942
0.00179891,98.5955
0.00180091,98.6199
0.00180291,98.645
0.0018049,98.5864
0.00180689,98.749
0.0018089,98.7507
0.00181091,98.8489
0.00181291,98.8862
0.00181491,98.7753
0.00181691,98.8268
0.00181889,98.8326
0.00182087,98.8075
0.00182288,98.8422
0.00182492,98.8865
0.00182691,98.9592
0.0018289,98.98
0.00183093,99.0604
0.00183293,99.0292
0.00183491,99.0425
0.0018369,99.0094
0.00183891,99.1301
0.00184091,99.0526
0.00184292,99.0833
0.00184489,99.1917
0.00184691,99.0913
0.00184888,99.0926
0.00185091,99.1443
0.0018529,99.1515
0.0018549,99.1423
0.00185689,99.2349
0.00185892,99.1512
0.00186089,99.2863
0.00186292,99.2352
0.0018649,99.2618
0.00186688,99.3211
0.00186889,99.2536
0.00187091,99.3021
0.00187286,99.3597
0.0018749,99.3756
0.00187689,99.3555
0.0018789,99.3569
0.00188091,99.4415
0.00188291,99.4656
0.00188492,99.4223
0.00188689,99.4546
0.0018889,99.48
0.0018909,99.4672
0.00189288,99.4875
0.0018949,99.5287
0.00189688,99.5433
0.00189889,99.4723
0.0019009,99.5422
0.0019029,99.5895
0.00190487,99.5911
0.00190692,99.7533
0.0019089,99.5731
0.0019109,99.7769
0.00191289,99.6732
0.00191487,99.7488
0.00191687,99.7573
0.00191889,99.7771
0.0019209,99.721
0.0019229,99.7584
0.00192487,99.8122
0.0019269,99.7801
0.00192889,99.8515
0.0019309,99.7844
0.00193291,99.9663
0.00193485,99.8895
0.00193689,99.9222
0.00193887,99.952
0.00194088,100.054
0.00194287,100.031
0.00194486,99.9578
0.00194685,99.987
0.0019489,100.039
0.00195087,100.03
0.0019529,100.006
0.00195488,100.044
0.00195688,100.127
0.00195886,100.045
0.00196087,100.143
0.00196286,100.147
0.00196485,100.197
0.00196687,100.195
0.00196886,100.233
0.00197088,100.283
0.00197287,100.275
0.00197487,100.317
0.00197685,100.241
0.00197889,100.359
0.00198088,100.333
0.00198288,100.429
0.00198487,100.561
0.00198688,100.574
0.00198886,100.511
0.00199089,100.481
0.00199288,100.478
0.00199489,100.583
0.00199685,100.588
0.00199887,100.632
0.0020009,100.734
0.00200288,100.805
0.00200489,100.796
0.00200688,100.71
0.00200885,100.764
0.00201088,100.805
0.00201288,100.789
0.00201482,100.802
0.00201686,100.669
0.00201885,100.773
0.00202086,100.807
0.00202287,100.845
0.00202486,100.846
0.00202687,100.894
0.00202885,100.937
0.00203086,100.927
0.00203286,100.859
0.00203486,100.746
0.0020369,100.693
0.00203884,100.68
0.00204082,100.641
0.00204285,100.811
0.00204485,100.794
0.00204685,100.833
0.00204885,100.895
0.00205085,100.968
0.00205287,101.024
0.00205486,100.991
0.00205683,101.005
0.00205886,101.137
0.00206086,101.073
0.00206282,101.088
0.00206486,101.136
0.00206686,101.184
0.00206882,101.237
0.00207087,101.305
0.00207287,101.326
0.00207487,101.222
0.00207684,101.303
0.00207882,101.344
0.00208083,101.343
0.00208284,101.484
0.00208484,101.492
0.00208685,101.466
0.00208886,101.445
0.00209084,101.473
0.00209285,101.525
0.00209482,101.596
0.00209686,101.591
0.00209885,101.572
0.0021008,101.563
0.00210284,101.651
0.00210482,101.708
0.00210682,101.601
0.00210883,101.627
0.00211082,101.633
0.00211282,101.64
0.00211487,101.741
0.00211687,101.706
0.00211884,101.751
0.00212086,101.736
0.00212283,101.785
0.00212482,101.773
0.00212686,101.866
0.00212884,101.721
0.00213081,101.963
0.00213285,101.933
0.00213484,101.899
0.00213685,102
0.00213884,102.061
0.00214082,101.978
0.00214286,102.009
0.00214486,102.109
0.00214685,102.072
0.00214886,102.062
0.00215082,102.068
0.0021528,102.013
0.00215482,102.129
0.00215681,102.117
0.00215883,102.158
0.00216083,102.141
0.00216285,102.172
0.00216483,102.138
0.00216683,102.307
0.00216882,102.124
0.00217084,102.258
0.00217284,102.403
0.00217483,102.258
0.00217685,102.316
0.00217884,102.363
0.00218079,102.308
0.00218279,102.342
0.00218484,102.259
0.00218685,102.339
0.00218882,102.26
0.00219083,102.271
0.00219284,102.321
0.00219485,102.348
0.00219683,102.33
0.00219882,102.476
0.00220082,102.37
0.00220282,102.342
0.0022048,102.487
0.00220684,102.59
0.00220882,102.535
0.0022108,102.49
0.00221285,102.456
0.00221483,102.722
0.00221685,102.541
0.00221881,102.45
0.00222083,102.474
0.00222279,102.441
0.00222478,102.441
0.00222679,102.491
0.00222882,102.435
0.00223081,102.432
0.00223283,102.391
0.00223481,102.34
0.00223682,102.501
0.00223885,102.47
0.0022408,102.473
0.00224278,102.436
0.00224483,102.417
0.00224678,102.57
0.00224876,102.548
0.00225078,102.584
0.00225281,102.429
0.00225479,102.501
0.00225681,102.423
0.00225879,102.539
0.00226082,102.57
0.00226284,102.502
0.00226482,102.64
0.00226679,102.586
0.00226883,102.641
0.00227082,102.611
0.00227279,102.603
0.00227481,102.662
0.0022768,102.69
0.0022788,102.507
0.0022808,102.633
0.00228282,102.671
0.0022848,102.636
0.00228683,102.8
0.00228882,102.651
0.00229079,102.69
0.00229282,102.709
0.00229479,102.802
0.00229677,102.746
0.00229881,102.807
0.00230075,102.87
0.0023028,102.791
0.0023048,102.782
0.00230682,102.853
0.00230881,102.873
0.00231081,102.812
0.00231282,102.899
0.00231478,102.864
0.0023168,102.961
0.00231875,102.901
0.0023208,102.923
0.00232271,102.901
0.00232477,102.962
0.00232679,102.968
0.0023288,102.949
0.00233079,103.055
0.00233279,103.046
0.00233472,102.915
0.00233679,103.018
0.0023388,103.084
0.00234072,103.045
0.0023428,103.102
0.00234481,103.044
0.00234677,103.065
0.00234878,103.165
0.00235078,103.145
0.00235278,103.18
0.00235479,103.224
0.0023568,103.222
0.00235878,103.231
0.00236078,103.195
0.00236279,103.271
0.00236472,103.351
0.00236679,103.374
0.00236878,103.349
0.00237073,103.221
0.00237277,103.39
0.00237477,103.328
0.00237675,103.385
0.00237879,103.297
0.00238077,103.306
0.00238279,103.358
0.00238475,103.404
0.00238677,103.307
0.00238877,103.298
0.00239076,103.475
0.00239278,103.376
0.00239474,103.341
0.00239675,103.38
0.00239878,103.52
0.00240077,103.273
0.00240274,103.417
0.00240478,103.337
0.00240678,103.342
0.00240877,103.345
0.00241078,103.244
0.00241277,103.37
0.00241473,103.249
0.00241707,-0.375785
0.00241872,-0.198176
0.00242072,-0.348574
0.00242278,-0.270212
0.00242475,-0.259778
0.00242675,-0.35634
0.00242879,-0.218279
0.0024308,-0.297424
0.00243272,-0.351073
0.00243478,-0.307281
0.00243677,-0.348913
0.00243874,-0.410123
0.00243921,-0.422669