File: data/PrimaryData/Unknown_Resin/Tensile_test_6.csv
Displacement,Load
-3.40439e-16,-0.0371654
-3.51282e-16,-0.0318946
7.38902e-07,0.121257
1.71504e-06,0.332913
2.7328e-06,0.368321
3.74358e-06,0.635747
4.71534e-06,0.896577
5.72881e-06,0.898014
6.71493e-06,1.03916
7.73017e-06,1.15064
8.74205e-06,1.05939
9.74246e-06,1.19248
1.0729e-05,1.17168
1.17306e-05,1.27185
1.26981e-05,1.25873
1.37271e-05,1.29568
1.47323e-05,1.25817
1.57263e-05,1.3567
1.67052e-05,1.43982
1.77167e-05,1.34807
1.87046e-05,1.51661
1.97053e-05,1.56961
2.07225e-05,1.70774
2.17179e-05,1.58244
2.27243e-05,1.64282
2.37006e-05,1.65214
2.4708e-05,1.81716
2.57124e-05,1.72557
2.6726e-05,1.89815
2.7723e-05,1.91441
2.87135e-05,2.06863
2.9725e-05,2.00139
3.07069e-05,2.12594
3.17332e-05,2.10021
3.2731e-05,2.06298
3.3725e-05,2.18041
3.4715e-05,2.31388
3.5702e-05,2.36534
3.66977e-05,2.35491
3.76947e-05,2.29229
3.86963e-05,2.39003
3.97182e-05,2.38617
4.07251e-05,2.44593
4.17175e-05,2.56648
4.27011e-05,2.62302
4.3682e-05,2.6091
4.47126e-05,2.58624
4.56928e-05,2.65086
4.66915e-05,2.76063
4.77059e-05,2.80161
4.87234e-05,2.81386
4.9684e-05,2.91476
5.07229e-05,2.92789
5.17177e-05,3.01305
5.27117e-05,3.00397
5.37097e-05,3.0887
5.47236e-05,3.15155
5.57009e-05,3.07921
5.66939e-05,3.07206
5.77081e-05,2.95246
5.87005e-05,3.07273
5.9722e-05,2.98841
6.07053e-05,3.0297
6.16742e-05,3.21542
6.26996e-05,3.19829
6.37057e-05,3.33522
6.47193e-05,3.32472
6.57022e-05,3.25094
6.66824e-05,3.36448
6.76761e-05,3.40847
6.86842e-05,3.60066
6.97006e-05,3.5792
7.07056e-05,3.52471
7.16996e-05,3.54948
7.26933e-05,3.65833
7.36728e-05,3.85215
7.46932e-05,3.76394
7.56997e-05,3.83512
7.66962e-05,3.93425
7.76959e-05,3.82692
7.87213e-05,3.96239
7.96768e-05,4.11681
8.07036e-05,4.11005
8.17065e-05,4.06381
8.27035e-05,4.20215
8.37206e-05,4.23284
8.46877e-05,4.26966
8.57145e-05,4.30228
8.67122e-05,4.31068
8.77029e-05,4.39645
8.86859e-05,4.52366
8.97127e-05,4.61262
9.06825e-05,4.57516
9.16834e-05,4.68075
9.26694e-05,4.63181
9.36847e-05,4.69868
9.46933e-05,4.88457
9.57013e-05,4.84321
9.67027e-05,4.85332
9.76771e-05,4.97217
9.87048e-05,5.01124
9.9702e-05,5.19265
0.000100711,5.14741
0.000101711,5.1698
0.000102717,5.30261
0.000103718,5.37578
0.000104703,5.37408
0.000105675,5.40649
0.000106713,5.44015
0.000107707,5.52955
0.000108691,5.52664
0.000109721,5.56779
0.000110687,5.72932
0.000111678,5.74941
0.000112697,5.72402
0.000113691,5.76047
0.000114697,5.80108
0.000115682,5.96389
0.00011667,5.95961
0.000117665,6.0965
0.000118672,6.14935
0.000119697,6.3133
0.000120675,6.157
0.000121677,6.30537
0.000122699,6.38249
0.000123663,6.47063
0.000124707,6.46311
0.000125703,6.50989
0.000126688,6.56763
0.00012771,6.68445
0.000128718,6.73952
0.000129665,6.80688
0.000130706,6.83982
0.000131689,7.00628
0.000132709,7.04918
0.000133677,7.0023
0.000134706,7.08721
0.000135653,7.24242
0.000136677,7.30923
0.00013768,7.40865
0.000138676,7.41372
0.000139685,7.48757
0.000140689,7.57644
0.000141662,7.61074
0.000142684,7.67037
0.000143684,7.76303
0.000144671,7.96489
0.000145697,7.94025
0.00014669,8.09251
0.00014765,8.11921
0.000148672,8.20342
0.000149714,8.30193
0.000150698,8.38909
0.00015168,8.40865
0.000152708,8.46868
0.000153654,8.66883
0.000154676,8.78765
0.000155675,8.88902
0.000156689,8.85864
0.00015769,8.93326
0.000158691,9.15223
0.000159669,9.29173
0.000160646,9.30727
0.000161671,9.34738
0.000162667,9.5142
0.000163657,9.57965
0.000164666,9.75375
0.000165662,9.72598
0.000166662,9.88619
0.000167676,10.0618
0.00016867,10.0679
0.000169692,10.1775
0.000170699,10.3211
0.000171694,10.4213
0.000172673,10.5669
0.00017369,10.6127
0.000174698,10.728
0.000175698,10.9242
0.000176706,11.0072
0.000177677,11.1496
0.000178695,11.1787
0.000179662,11.3602
0.000180684,11.5704
0.000181677,11.5823
0.000182681,11.7122
0.000183697,11.7995
0.000184657,11.9174
0.000185659,12.1166
0.000186666,12.1887
0.000187674,12.2549
0.000188656,12.4017
0.000189678,12.5438
0.000190658,12.7309
0.000191669,12.7707
0.000192679,12.9413
0.00019369,13.0774
0.000194693,13.2527
0.000195683,13.3856
0.00019668,13.477
0.000197662,13.694
0.000198693,13.7996
0.000199671,13.9032
0.00020067,14.0079
0.000201699,14.1491
0.000202671,14.3089
0.000203652,14.4405
0.000204676,14.6166
0.000205667,14.6928
0.000206652,14.8827
0.00020767,15.0002
0.00020866,15.2132
0.000209624,15.2713
0.000210657,15.4828
0.000211655,15.6382
0.000212672,15.7311
0.000213675,15.8567
0.000214679,15.9602
0.000215635,16.1016
0.000216653,16.2587
0.000217659,16.4058
0.000218665,16.548
0.000219677,16.7265
0.000220672,16.8063
0.000221648,16.9032
0.000222676,17.1178
0.000223674,17.2089
0.000224666,17.3848
0.000225674,17.437
0.000226665,17.6119
0.000227653,17.8231
0.000228659,17.8672
0.000229639,18.0344
0.000230678,18.1579
0.000231667,18.3935
0.000232662,18.4942
0.000233642,18.5966
0.00023465,18.7008
0.000235669,18.9329
0.000236647,19.0092
0.000237661,19.2414
0.000238654,19.3122
0.000239656,19.4961
0.000240679,19.5992
0.000241659,19.7047
0.000242672,19.9028
0.00024367,20.0096
0.000244666,20.2463
0.000245659,20.4458
0.00024668,20.5455
0.000247653,20.751
0.00024867,20.8903
0.000249667,20.9877
0.000250663,20.9864
0.00025167,21.2318
0.000252677,21.449
0.000253648,21.578
0.000254658,21.7285
0.000255665,21.8637
0.000256637,21.9466
0.000257657,22.1525
0.000258645,22.3162
0.00025964,22.4548
0.000260659,22.6342
0.000261654,22.6532
0.000262658,22.8869
0.000263653,22.9995
0.000264648,23.132
0.000265636,23.3455
0.000266649,23.4213
0.000267661,23.5622
0.000268674,23.7926
0.000269669,23.951
0.00027065,24.0699
0.000271653,24.2194
0.000272644,24.4359
0.000273656,24.577
0.000274657,24.6987
0.000275671,24.8047
0.000276663,24.9604
0.000277631,25.1238
0.000278646,25.2018
0.000279648,25.2978
0.000280663,25.4191
0.000281667,25.5415
0.000282653,25.7409
0.000283618,25.8488
0.00028464,26.0085
0.000285631,26.1422
0.000286643,26.1969
0.000287654,26.3524
0.000288654,26.4413
0.000289655,26.5982
0.000290647,26.7611
0.000291646,26.8869
0.000292662,27.0675
0.000293662,27.2246
0.000294658,27.2688
0.000295643,27.4157
0.000296638,27.6177
0.000297658,27.8001
0.000298668,27.9336
0.000299659,28.0338
0.000300638,28.1748
0.00030162,28.3434
0.000302644,28.4306
0.000303647,28.532
0.000304626,28.6879
0.000305641,28.734
0.00030663,29.0305
0.000307612,29.0881
0.000308631,29.3088
0.000309624,29.4349
0.000310633,29.4335
0.000311648,29.5118
0.000312636,29.8035
0.000313623,29.9003
0.000314646,30.0253
0.000315651,30.2359
0.000316632,30.3096
0.000317658,30.3779
0.000318645,30.6194
0.000319647,30.7218
0.000320662,30.7896
0.000321657,30.9341
0.000322632,31.1664
0.000323653,31.2917
0.00032466,31.5843
0.000325636,31.5897
0.000326624,31.7407
0.000327621,31.7902
0.000328626,31.9921
0.000329632,32.2062
0.000330626,32.2569
0.000331633,32.4321
0.000332653,32.6335
0.000333622,32.6055
0.000334656,32.7624
0.00033563,32.8818
0.000336646,33.1319
0.000337646,33.2693
0.000338638,33.3749
0.000339638,33.4938
0.00034063,33.626
0.000341639,33.7583
0.000342654,33.8667
0.000343657,33.9348
0.000344659,34.2318
0.000345643,34.2913
0.000346636,34.4459
0.000347633,34.5436
0.000348627,34.6878
0.000349638,34.918
0.000350613,34.92
0.000351649,35.0425
0.000352613,35.2569
0.000353617,35.3279
0.00035462,35.4827
0.000355626,35.6503
0.000356622,35.7454
0.000357601,35.9367
0.000358628,36.0958
0.00035963,36.1476
0.000360628,36.2622
0.000361635,36.4775
0.00036264,36.5152
0.000363616,36.707
0.000364645,36.855
0.00036564,36.9962
0.000366652,36.9515
0.000367643,37.2727
0.000368635,37.2784
0.000369617,37.3628
0.000370623,37.6112
0.000371626,37.7294
0.000372626,37.9126
0.000373626,37.9849
0.000374643,38.1854
0.000375601,38.2201
0.000376616,38.3951
0.00037761,38.6464
0.000378635,38.6285
0.000379622,38.8114
0.000380597,38.8999
0.000381623,39.1336
0.000382625,39.2537
0.00038362,39.3146
0.000384621,39.4303
0.00038563,39.5527
0.000386635,39.5344
0.000387622,39.736
0.000388637,39.7336
0.000389621,39.9808
0.000390649,40.0174
0.000391627,40.2257
0.000392649,40.264
0.000393625,40.3163
0.000394612,40.4159
0.000395614,40.5842
0.000396606,40.7313
0.000397625,40.8435
0.000398636,40.9076
0.000399594,40.931
0.000400617,41.0475
0.000401595,41.1512
0.00040262,41.285
0.00040361,41.3405
0.0004046,41.5044
0.000405597,41.6924
0.000406612,41.7368
0.000407606,41.8012
0.000408614,41.9515
0.000409629,42.1109
0.000410633,42.1962
0.000411634,42.1982
0.000412623,42.3022
0.000413613,42.4925
0.000414624,42.5471
0.000415612,42.7165
0.000416614,42.938
0.000417622,43.0321
0.000418598,43.1053
0.000419601,43.3267
0.000420612,43.2763
0.000421609,43.3532
0.000422612,43.5578
0.000423614,43.7007
0.000424602,43.907
0.000425609,43.9385
0.000426601,44.1311
0.000427599,44.2851
0.000428601,44.2804
0.00042959,44.3948
0.000430636,44.4283
0.000431596,44.6056
0.000432609,44.7572
0.000433607,44.8921
0.000434641,44.9832
0.000435616,44.9813
0.000436617,45.2597
0.000437605,45.3475
0.000438657,45.4402
0.000439607,45.5232
0.000440614,45.468
0.000441609,45.6253
0.000442638,45.7882
0.000443599,45.9785
0.000444582,45.9895
0.000445597,46.1263
0.000446598,46.2134
0.000447606,46.3054
0.000448601,46.364
0.000449615,46.5581
0.000450602,46.5719
0.000451599,46.7847
0.000452619,46.7938
0.000453608,46.8652
0.000454601,47.0435
0.000455618,47.166
0.000456605,47.1743
0.000457618,47.2627
0.000458628,47.4638
0.000459606,47.4837
0.000460607,47.6926
0.00046162,47.8138
0.000462596,47.9665
0.000463602,47.8996
0.000464603,48.12
0.000465603,48.1367
0.000466605,48.4273
0.000467594,48.4662
0.000468619,48.6229
0.000469584,48.8428
0.000470586,48.7999
0.000471592,48.9771
0.00047259,49.2004
0.000473585,49.1568
0.000474619,49.4279
0.000475592,49.5758
0.000476591,49.6852
0.000477592,49.8447
0.000478614,50.0121
0.000479582,50.2131
0.000480603,50.373
0.000481597,50.5004
0.0004826,50.6098
0.000483604,50.6833
0.000484592,50.803
0.000485621,50.9781
0.000486614,51.1401
0.000487595,51.2894
0.000488607,51.3397
0.000489593,51.3845
0.000490595,51.6702
0.000491602,51.6246
0.000492583,51.882
0.000493607,51.9107
0.00049459,52.1609
0.000495583,52.2206
0.000496598,52.4213
0.000497594,52.4823
0.000498601,52.6688
0.000499574,52.7639
0.000500582,52.8087
0.000501584,52.9556
0.000502596,53.0226
0.000503599,53.1828
0.000504601,53.3568
0.000505593,53.4868
0.000506592,53.5465
0.000507592,53.7421
0.000508617,53.8993
0.000509607,54.0054
0.000510586,53.9947
0.000511597,54.1347
0.000512593,54.2053
0.000513605,54.4871
0.000514605,54.5722
0.000515598,54.8519
0.000516589,54.7802
0.000517601,55.0453
0.000518581,55.2716
0.000519575,55.3191
0.000520593,55.4531
0.000521584,55.6432
0.000522601,55.8329
0.000523578,55.9756
0.000524569,56.1369
0.000525616,56.2354
0.000526586,56.4192
0.000527583,56.4558
0.000528595,56.7172
0.000529591,56.8362
0.00053059,57.0105
0.000531613,57.108
0.000532595,57.328
0.000533605,57.4222
0.000534619,57.5444
0.000535618,57.7328
0.000536595,57.9058
0.000537588,57.9652
0.000538581,58.1991
0.000539581,58.2919
0.000540569,58.5116
0.000541588,58.5559
0.000542581,58.7461
0.000543589,58.879
0.000544589,58.9984
0.000545565,59.1871
0.000546604,59.2597
0.000547559,59.2982
0.000548551,59.4625
0.000549554,59.6673
0.000550598,59.8199
0.000551586,59.967
0.000552598,60.0068
0.000553582,60.2462
0.000554589,60.2528
0.000555601,60.5733
0.000556598,60.6338
0.000557584,60.7249
0.000558591,60.9726
0.000559576,61.0789
0.000560598,61.2266
0.000561582,61.4469
0.000562595,61.645
0.000563585,61.766
0.000564578,61.792
0.000565559,62.1092
0.000566588,62.2385
0.000567581,62.3778
0.000568599,62.5089
0.000569568,62.6902
0.000570575,62.871
0.000571574,63.1042
0.000572564,63.1677
0.000573594,63.3327
0.000574581,63.5225
0.000575588,63.7284
0.000576561,63.9317
0.000577591,64.0477
0.000578579,64.1355
0.000579591,64.3188
0.000580606,64.5759
0.000581573,64.7172
0.000582573,64.7753
0.00058358,64.9986
0.00058457,65.1075
0.000585576,65.3172
0.00058658,65.5076
0.000587572,65.6684
0.000588586,65.8604
0.000589568,66.0308
0.000590574,66.1026
0.000591549,66.2905
0.000592567,66.4715
0.000593563,66.589
0.000594565,66.7475
0.000595553,66.8862
0.000596561,67.1065
0.000597559,67.3259
0.000598571,67.304
0.000599581,67.5226
0.000600577,67.7221
0.000601565,67.8278
0.000602598,67.9896
0.000603573,68.1547
0.000604578,68.3027
0.000605574,68.4019
0.000606595,68.5298
0.00060758,68.8034
0.00060857,68.9666
0.000609575,69.0825
0.000610598,69.2335
0.000611562,69.3753
0.000612593,69.5636
0.000613556,69.7341
0.000614557,69.8682
0.000615559,70.0345
0.000616564,70.2126
0.000617564,70.3249
0.000618564,70.5252
0.000619571,70.6736
0.000620561,70.859
0.000621572,71.0589
0.000622567,71.2701
0.000623587,71.4842
0.000624584,71.6481
0.000625575,71.8317
0.000626574,71.8751
0.000627569,72.1089
0.000628573,72.2336
0.000629566,72.4381
0.00063058,72.5235
0.000631564,72.6916
0.000632564,72.881
0.000633563,72.9881
0.00063456,73.1582
0.000635567,73.2962
0.000636563,73.545
0.000637559,73.6322
0.000638561,73.789
0.000639565,74.0215
0.000640555,74.2707
0.000641545,74.3339
0.000642546,74.4944
0.000643564,74.7556
0.000644542,74.8907
0.000645567,75.026
0.000646569,75.1216
0.000647561,75.2489
0.000648589,75.4167
0.000649578,75.5134
0.000650557,75.737
0.00065157,75.9331
0.000652555,76.0364
0.000653559,76.197
0.000654555,76.3399
0.000655559,76.4549
0.000656562,76.7121
0.000657557,76.8601
0.000658552,77.0197
0.000659564,77.1665
0.000660573,77.1533
0.000661557,77.4573
0.000662557,77.5732
0.000663546,77.6964
0.000664538,77.885
0.000665548,77.9644
0.000666553,78.1562
0.000667554,78.3808
0.000668574,78.595
0.000669549,78.7304
0.000670577,78.9378
0.000671548,79.0133
0.000672562,79.1293
0.00067357,79.4345
0.000674564,79.6979
0.000675567,79.7477
0.000676573,79.6804
0.000677561,80.0685
0.000678561,80.0772
0.000679561,80.2695
0.00068057,80.4225
0.000681551,80.6178
0.00068255,80.803
0.00068356,80.9559
0.00068456,81.1518
0.000685549,81.3405
0.00068655,81.5693
0.000687537,81.7757
0.000688531,81.8116
0.000689529,81.9218
0.000690526,82.1791
0.000691547,82.3277
0.000692554,82.4881
0.000693556,82.7853
0.00069453,82.9877
0.000695544,83.0505
0.000696566,83.1858
0.000697567,83.4019
0.00069858,83.5264
0.000699554,83.6916
0.00070057,83.8267
0.000701563,83.9145
0.000702567,84.13
0.000703534,84.1199
0.000704555,84.3266
0.000705549,84.4393
0.000706571,84.5021
0.000707535,84.587
0.000708535,84.7833
0.000709544,84.9947
0.000710561,85.1437
0.000711516,85.1526
0.000712551,85.3065
0.00071352,85.5639
0.000714549,85.5823
0.00071553,85.6288
0.000716546,85.8353
0.000717555,85.9727
0.000718559,86.1212
0.000719551,86.2231
0.000720561,86.2565
0.000721554,86.3691
0.000722567,86.5966
0.000723569,86.6362
0.000724553,86.8159
0.000725554,87.0297
0.000726545,87.134
0.000727523,87.2718
0.000728539,87.3812
0.000729561,87.5405
0.000730557,87.6777
0.000731541,87.77
0.000732541,87.7939
0.000733525,87.8559
0.000734557,87.9779
0.000735523,88.1621
0.00073653,88.3118
0.00073754,88.4439
0.000738521,88.6646
0.000739534,88.702
0.000740537,88.8377
0.000741553,89.001
0.000742533,89.1791
0.000743555,89.2128
0.000744535,89.2913
0.00074556,89.469
0.000746573,89.5661
0.000747556,89.7391
0.000748553,89.7111
0.000749556,89.8959
0.000750546,90.0459
0.000751551,90.0936
0.000752534,90.1979
0.000753549,90.2032
0.000754541,90.2672
0.000755542,90.4468
0.000756523,90.5821
0.000757511,90.7063
0.000758541,90.8298
0.000759549,91.0198
0.00076054,91.0753
0.000761564,90.9755
0.000762531,91.3423
0.000763546,91.3668
0.000764508,91.4454
0.000765555,91.5012
0.000766552,91.6958
0.00076754,91.7329
0.000768545,91.9108
0.000769546,91.9813
0.000770537,91.9975
0.000771561,92.1313
0.000772543,92.3462
0.000773541,92.5235
0.00077455,92.6183
0.000775535,92.695
0.000776518,92.8313
0.000777551,92.9775
0.000778521,93.0916
0.000779523,93.1296
0.000780541,93.1843
0.000781511,93.3244
0.000782508,93.4584
0.000783544,93.6064
0.000784529,93.6866
0.000785516,93.7545
0.000786533,93.8743
0.000787532,93.9203
0.000788525,94.0473
0.000789531,94.1337
0.000790556,94.1561
0.000791551,94.3714
0.000792541,94.4467
0.000793537,94.5287
0.000794527,94.6203
0.000795529,94.63
0.000796534,94.8379
0.000797564,94.8142
0.000798543,94.9874
0.000799519,95.0367
0.00080053,95.1891
0.000801519,95.2404
0.000802529,95.3471
0.000803509,95.3932
0.000804514,95.4894
0.000805534,95.5603
0.000806488,95.7065
0.000807512,95.7879
0.000808533,95.7814
0.000809524,96.0499
0.000810539,96.0421
0.000811518,96.1389
0.000812535,96.2552
0.00081351,96.2849
0.000814524,96.4158
0.000815532,96.4467
0.000816524,96.6506
0.000817551,96.6966
0.000818504,96.7946
0.000819518,96.8561
0.000820523,96.982
0.000821539,96.8774
0.000822532,96.9889
0.00082351,97.106
0.000824533,97.0576
0.000825505,97.2825
0.000826521,97.2694
0.000827532,97.3324
0.000828524,97.3938
0.000829517,97.5458
0.000830513,97.6287
0.000831507,97.5914
0.000832534,97.751
0.000833511,97.8734
0.000834502,97.9432
0.000835545,97.93
0.000836498,98.0524
0.000837501,98.0913
0.000838524,98.1362
0.000839526,98.3076
0.000840516,98.3406
0.000841549,98.4242
0.000842498,98.4479
0.000843524,98.4476
0.000844522,98.6145
0.000845497,98.6466
0.000846529,98.7217
0.000847546,98.7969
0.000848513,98.8457
0.00084951,98.918
0.000850533,98.8992
0.000851523,99.0804
0.000852546,98.9416
0.000853511,99.1617
0.000854509,99.2052
0.000855507,99.2313
0.000856526,99.2773
0.000857511,99.3943
0.000858514,99.4785
0.000859523,99.4462
0.000860504,99.5214
0.000861512,99.5157
0.000862514,99.679
0.000863527,99.6637
0.000864542,99.7198
0.000865523,99.7819
0.000866524,99.8315
0.000867506,99.822
0.000868517,99.9629
0.000869509,99.8989
0.000870526,100.023
0.000871512,100.014
0.000872514,100.142
0.000873512,100.064
0.000874512,100.164
0.000875504,100.088
0.000876488,100.27
0.000877514,100.308
0.000878507,100.312
0.000879494,100.422
0.000880492,100.431
0.000881503,100.474
0.000882484,100.539
0.000883494,100.606
0.000884525,100.624
0.000885509,100.701
0.000886516,100.644
0.000887503,100.755
0.000888511,100.8
0.000889513,100.847
0.000890534,100.86
0.000891512,100.82
0.000892501,101.055
0.000893501,100.921
0.00089451,100.983
0.000895513,100.947
0.00089651,100.951
0.000897492,101.05
0.000898506,101.075
0.000899477,101.147
0.00090049,101.171
0.000901501,101.288
0.000902494,101.24
0.000903481,101.249
0.000904486,101.329
0.00090548,101.329
0.000906481,101.306
0.000907498,101.412
0.000908501,101.431
0.000909496,101.464
0.000910514,101.584
0.00091149,101.518
0.000912502,101.492
0.000913518,101.535
0.000914505,101.489
0.000915485,101.605
0.000916508,101.574
0.000917495,101.556
0.000918494,101.669
0.000919509,101.682
0.000920498,101.712
0.000921483,101.711
0.00092248,101.674
0.000923501,101.788
0.000924472,101.694
0.000925485,101.767
0.00092652,101.845
0.000927489,101.953
0.000928492,101.92
0.000929514,101.859
0.000930489,101.926
0.000931495,101.905
0.000932539,101.915
0.0009335,101.853
0.000934524,101.909
0.000935522,101.946
0.000936526,101.963
0.0009375,101.937
0.000938515,101.972
0.000939517,101.993
0.000940496,101.981
0.000941479,101.994
0.000942498,102.099
0.000943496,102.093
0.000944523,102.046
0.000945485,102.019
0.000946512,102.046
0.000947474,102.076
0.000948497,102.007
0.000949485,102.086
0.000950506,102.048
0.00095149,102.122
0.000952509,102.117
0.00095348,102.129
0.000954516,102.135
0.000955483,102.128
0.000956498,102.142
0.000957497,102.161
0.000958525,102.089
0.0009595,102.121
0.000960515,102.077
0.000961494,102.115
0.000962496,102.089
0.000963505,102.173
0.000964512,102.17
0.000965484,102.117
0.000966496,102.174
0.000967478,102.183
0.000968472,102.112
0.000969507,102.128
0.000970474,102.152
0.000971471,102.156
0.000972485,102.15
0.000973468,102.133
0.000974466,102.137
0.000975484,102.214
0.000976489,102.153
0.00097749,102.088
0.000978482,102.162
0.000979473,102.043
0.000980478,102.111
0.000981517,102.175
0.000982489,102.115
0.000983479,102.175
0.000984499,102.097
0.000985471,102.15
0.000986486,102.025
0.000987476,102.157
0.000988497,102.136
0.000989489,102.196
0.000990491,102.091
0.00099148,102.061
0.000992489,102.137
0.000993483,102.022
0.000994482,102.111
0.000995498,102.088
0.000996478,102.09
0.000997456,101.984
0.000998478,102.032
0.000999491,101.989
0.00100049,101.95
0.00100147,101.982
0.0010025,101.975
0.00100347,102.004
0.00100447,101.879
0.00100547,101.947
0.00100648,101.971
0.00100749,101.991
0.00100849,101.924
0.00100946,101.941
0.00101049,101.971
0.00101147,101.94
0.00101251,101.916
0.00101348,101.902
0.00101449,101.847
0.00101548,101.877
0.00101647,101.919
0.00101745,101.902
0.00101849,101.814
0.00101948,101.892
0.00102049,101.818
0.00102147,101.787
0.00102247,101.824
0.00102345,101.838
0.00102448,101.759
0.00102549,101.736
0.00102649,101.804
0.00102749,101.826
0.00102847,101.889
0.0010295,101.744
0.00103046,101.837
0.0010315,101.755
0.00103249,101.656
0.00103349,101.768
0.00103449,101.779
0.00103548,101.737
0.00103646,101.762
0.00103749,101.546
0.00103848,101.626
0.00103946,101.66
0.00104047,101.602
0.00104147,101.574
0.00104245,101.489
0.00104347,101.543
0.00104446,101.434
0.00104548,101.577
0.00104646,101.519
0.00104744,101.581
0.00104847,101.5
0.00104948,101.416
0.00105048,101.443
0.00105147,101.566
0.00105245,101.353
0.00105347,101.547
0.00105449,101.378
0.00105546,101.321
0.00105646,101.502
0.00105746,101.352
0.0010585,101.374
0.00105946,101.343
0.00106046,101.375
0.00106149,101.283
0.00106246,101.256
0.00106346,101.261
0.00106446,101.264
0.00106546,101.225
0.00106646,101.214
0.00106745,101.139
0.00106847,101.167
0.00106946,101.17
0.00107045,101.209
0.00107145,101.077
0.00107245,101.122
0.00107345,101.059
0.00107446,101.102
0.00107548,100.97
0.00107646,100.999
0.00107747,100.991
0.00107845,101.097
0.00107946,100.955
0.00108047,100.977
0.00108148,100.83
0.00108248,100.951
0.00108347,100.96
0.00108446,100.918
0.00108546,100.954
0.00108645,100.959
0.00108744,100.914
0.00108848,100.895
0.00108946,100.977
0.00109045,101.022
0.00109144,100.822
0.00109245,101.037
0.00109346,100.927
0.00109444,100.911
0.00109541,101.071
0.00109643,100.974
0.00109745,100.901
0.00109846,100.896
0.00109948,100.957
0.00110048,100.893
0.00110147,100.881
0.00110245,100.812
0.00110344,100.802
0.00110446,100.87
0.00110548,100.884
0.00110648,100.999
0.00110746,100.796
0.00110846,100.786
0.00110943,100.849
0.00111047,100.827
0.00111145,100.75
0.00111246,100.797
0.00111344,100.824
0.00111448,100.692
0.00111544,100.789
0.00111643,100.724
0.00111747,100.839
0.00111845,100.77
0.00111948,100.749
0.00112045,100.782
0.00112144,100.661
0.00112248,100.583
0.00112345,100.678
0.00112446,100.602
0.00112549,100.53
0.00112646,100.745
0.00112745,100.579
0.00112845,100.583
0.00112947,100.486
0.00113046,100.533
0.00113145,100.553
0.00113245,100.517
0.00113343,100.569
0.00113444,100.515
0.00113544,100.466
0.00113644,100.429
0.00113776,-0.480275
0.00113833,-0.605481
0.00113937,-0.617565
0.00114043,-0.696745
0.00114144,-0.742894
0.00114244,-0.697206
0.00114346,-0.589938
0.00114444,-0.618052
0.00114544,-0.729767
0.00114645,-0.640853
0.00114745,-0.765373
0.00114844,-0.626837
0.00114944,-0.675824
0.00115045,-0.684488
0.00115146,-0.652532
0.00115244,-0.797998
0.00115344,-0.686413
0.00115444,-0.75646
0.00115545,-0.798397
0.00115645,-0.740541
0.00115746,-0.75625
0.00115844,-0.677735
0.00115945,-0.752526
0.00116043,-0.766977
0.00116146,-0.736089
0.00116243,-0.655341
0.00116346,-0.711544
0.00116443,-0.680723
0.00116541,-0.704962
0.00116644,-0.769915
0.00116745,-0.687844
0.00116844,-0.779207
0.00116944,-0.687584
0.00117046,-0.704691