File: results/Unknown_Resin_15Bi/Tensile_Test_03/Tensile_test_8.csv
Displacement,Load
-6.79874e-06,-0.119948
-5.38483e-06,0.0559727
-3.8694e-06,0.097325
-2.43986e-06,0.21206
-9.36406e-07,0.260257
6.17014e-07,0.298689
2.13622e-06,0.289449
3.59458e-06,0.266857
5.07657e-06,0.466777
6.62014e-06,0.455381
8.09167e-06,0.46839
9.57552e-06,0.517808
1.10456e-05,0.449757
1.25614e-05,0.476713
1.41104e-05,0.539639
1.55591e-05,0.547971
1.70546e-05,0.556206
1.86017e-05,0.682178
2.01216e-05,0.691402
2.15757e-05,0.710796
2.30547e-05,0.775703
2.45948e-05,0.780174
2.60958e-05,0.766966
2.76288e-05,0.751488
2.90685e-05,0.805613
3.05594e-05,0.933432
3.20461e-05,0.9185
3.35574e-05,0.874478
3.50657e-05,1.03613
3.65531e-05,0.966702
3.80799e-05,0.980442
3.95848e-05,1.11935
4.10448e-05,1.1459
4.25776e-05,1.2127
4.40675e-05,1.21534
4.56016e-05,1.33306
4.70561e-05,1.20517
4.85694e-05,1.29453
5.00945e-05,1.2647
5.16192e-05,1.37736
5.30449e-05,1.4699
5.45526e-05,1.41609
5.60803e-05,1.44654
5.76213e-05,1.61898
5.90563e-05,1.60685
6.0546e-05,1.5294
6.20899e-05,1.70085
6.3598e-05,1.72018
6.50465e-05,1.73055
6.65599e-05,1.74879
6.80813e-05,1.84889
6.9557e-05,1.83965
7.10493e-05,1.9161
7.25791e-05,1.85791
7.41014e-05,1.94515
7.55619e-05,1.97401
7.70954e-05,2.02525
7.85591e-05,2.08937
8.00702e-05,2.12042
8.15725e-05,2.19776
8.30721e-05,2.14353
8.45406e-05,2.29236
8.60652e-05,2.32518
8.75521e-05,2.35915
8.90688e-05,2.43078
9.05419e-05,2.30524
9.20695e-05,2.35822
9.35821e-05,2.4613
9.50994e-05,2.57245
9.65455e-05,2.55413
9.80978e-05,2.64805
9.9538e-05,2.6203
0.000101054,2.74285
0.000102557,2.78157
0.000104063,2.70455
0.000105546,2.81779
0.000107071,3.06733
0.000108526,3.04182
0.000110078,3.08106
0.000111568,3.18808
0.000113074,3.1703
0.000114575,3.26696
0.000116023,3.2571
0.00011761,3.40455
0.000119074,3.51552
0.000120542,3.51204
0.000122035,3.53916
0.000123523,3.62473
0.000125049,3.75896
0.00012653,3.88242
0.000128034,3.88177
0.000129515,4.00006
0.000131036,3.92114
0.000132517,4.14772
0.000134026,4.21834
0.000135558,4.21751
0.000137078,4.31036
0.000138527,4.40102
0.000140052,4.52272
0.00014156,4.63425
0.000143085,4.71566
0.000144549,4.7593
0.000146039,4.7828
0.000147549,4.92361
0.000149056,5.05944
0.000150585,5.06067
0.000152037,5.24178
0.000153561,5.24464
0.000155048,5.35083
0.000156508,5.47641
0.000158039,5.46596
0.00015955,5.61467
0.000161075,5.69441
0.000162559,5.80335
0.000164021,5.8532
0.000165535,5.99196
0.000167048,6.10097
0.000168551,6.19066
0.00017007,6.24072
0.00017153,6.327
0.000173034,6.36994
0.000174556,6.49935
0.000176042,6.53871
0.000177531,6.65116
0.000179028,6.79416
0.000180513,6.88847
0.000182019,6.98126
0.000183498,7.1802
0.00018509,7.20835
0.000186562,7.37379
0.000188041,7.4526
0.000189532,7.54594
0.000191076,7.66152
0.000192539,7.69253
0.000194071,7.78974
0.000195505,7.91838
0.000197076,8.09614
0.000198521,8.19927
0.000200011,8.27556
0.00020149,8.47983
0.000203053,8.52133
0.000204581,8.57294
0.000206053,8.67471
0.000207497,8.9168
0.000209067,8.95832
0.000210525,9.00055
0.000212034,9.16659
0.000213503,9.29199
0.000215051,9.41378
0.000216566,9.4654
0.000218003,9.66288
0.000219497,9.73838
0.000221025,9.88142
0.00022254,9.91801
0.00022404,10.0911
0.000225509,10.227
0.000227001,10.3166
0.000228561,10.4367
0.00023,10.5795
0.000231543,10.5887
0.000233007,10.8181
0.000234546,10.9546
0.000236027,11.07
0.000237551,11.2673
0.00023908,11.342
0.000240587,11.4269
0.00024202,11.5441
0.000243552,11.7598
0.000245005,11.8455
0.000246578,11.9891
0.000248059,12.1824
0.000249546,12.1322
0.000250986,12.4099
0.000252559,12.4347
0.000254008,12.7072
0.000255559,12.7522
0.000257005,12.8626
0.000258541,13.1743
0.000260011,13.2176
0.000261543,13.3958
0.000263015,13.5656
0.000264554,13.5531
0.000266,13.784
0.000267547,14.0126
0.000269016,14.1824
0.000270519,14.1728
0.000272007,14.2091
0.000273549,14.5619
0.000274979,14.6007
0.000276532,14.7537
0.000278029,14.9347
0.000279533,14.9521
0.00028101,15.1998
0.000282532,15.2668
0.000284056,15.46
0.000285501,15.6097
0.000287014,15.7516
0.000288541,15.924
0.00029005,16.0824
0.000291526,16.3106
0.000292993,16.413
0.000294482,16.5372
0.000296053,16.8276
0.00029752,16.9194
0.000299002,16.9735
0.000300508,17.2519
0.000302015,17.3506
0.000303555,17.5082
0.000305036,17.7412
0.000306509,17.7356
0.000308006,18.066
0.00030948,18.143
0.000310993,18.3505
0.000312495,18.4675
0.000314007,18.7253
0.000315557,18.8076
0.000317059,18.956
0.000318478,19.2554
0.000319963,19.4015
0.000321507,19.5768
0.000323036,19.7113
0.000324479,19.9202
0.000326025,19.9595
0.00032747,20.2376
0.000328995,20.3923
0.000330493,20.5334
0.000332027,20.7761
0.000333525,21.0652
0.00033505,21.0829
0.000336548,21.3409
0.000338045,21.4754
0.000339537,21.6848
0.000341012,21.8169
0.000342462,21.9688
0.000343991,22.1728
0.000345465,22.3454
0.000347005,22.4675
0.000348523,22.7206
0.00034997,22.8739
0.000351507,23.112
0.000353007,23.2251
0.000354504,23.3876
0.000356039,23.7307
0.000357567,23.6254
0.000358994,23.8546
0.000360503,24.0702
0.000362002,24.2909
0.000363496,24.407
0.000365021,24.6384
0.000366479,24.7261
0.000368006,24.933
0.000369497,25.1667
0.000371004,25.3183
0.00037252,25.6051
0.000373984,25.6985
0.000375521,25.904
0.000376986,26.0816
0.00037847,26.2051
0.000380007,26.4745
0.000381488,26.5133
0.00038302,26.9101
0.000384465,26.9346
0.000385988,27.1217
0.000387506,27.4206
0.000388984,27.5011
0.000390475,27.7374
0.000391949,27.8884
0.000393505,28.1195
0.000395006,28.3354
0.000396482,28.6689
0.000398,28.747
0.00039947,28.9875
0.000401037,29.2383
0.0004025,29.4125
0.00040401,29.713
0.000405503,29.8679
0.000407029,30.0431
0.000408508,30.2445
0.000409976,30.3908
0.000411456,30.5109
0.000413021,30.8032
0.000414496,30.8629
0.000415988,31.1727
0.000417451,31.3369
0.000419028,31.4039
0.000420492,31.6467
0.000421934,31.8848
0.000423456,32.0852
0.000425026,32.287
0.000426509,32.3552
0.000427981,32.5237
0.000429471,32.8617
0.00043103,33.0199
0.000432448,33.1242
0.000433991,33.3954
0.000435516,33.6324
0.000436969,33.7626
0.000438446,33.9368
0.00043998,34.1669
0.000441473,34.3368
0.000442938,34.4779
0.000444471,34.6808
0.000445962,34.7634
0.000447522,34.9518
0.000448975,35.0625
0.000450509,35.4352
0.000452008,35.3548
0.000453478,35.6442
0.000455,35.7228
0.000456521,35.9512
0.000457973,36.2297
0.000459489,36.3466
0.000460986,36.5138
0.000462481,36.648
0.000464026,36.9
0.000465459,37.1184
0.00046694,37.3548
0.000468498,37.5026
0.000469978,37.6934
0.000471446,37.8388
0.000472951,38.0857
0.000474484,38.0252
0.00047599,38.1299
0.000477459,38.2119
0.000478947,38.4114
0.000480499,38.5202
0.000481985,38.7482
0.000483438,38.8538
0.000485004,39.0432
0.000486518,39.2551
0.000487973,39.3126
0.000489464,39.5335
0.000490957,39.6942
0.000492458,39.7695
0.000493989,39.8969
0.000495452,40.2698
0.000496962,40.2348
0.00049848,40.5139
0.000499983,40.6007
0.000501463,40.7079
0.000502946,40.9594
0.000504482,41.2754
0.00050599,41.3065
0.000507461,41.4517
0.000508937,41.5326
0.000510471,41.6976
0.000511958,41.9775
0.00051343,41.998
0.000514943,42.1729
0.000516457,42.2461
0.000517966,42.4247
0.000519441,42.4816
0.000520959,42.6881
0.000522449,42.6997
0.00052401,42.8254
0.000525501,42.9628
0.00052694,43.0208
0.000528435,43.2304
0.000529977,43.2775
0.000531465,43.3009
0.000532927,43.4975
0.000534437,43.7627
0.000535965,43.8177
0.000537457,43.957
0.000538913,44.0389
0.000540416,44.1502
0.000541949,44.3057
0.000543451,44.3837
0.000544948,44.4849
0.000546435,44.744
0.000547949,44.8156
0.000549445,44.8276
0.000550932,44.9331
0.000552434,45.2082
0.000553945,45.3071
0.000555453,45.3941
0.000556959,45.5455
0.000558414,45.6398
0.000559945,45.6584
0.000561427,45.9225
0.000562983,45.9164
0.000564421,46.1233
0.000565926,46.1996
0.000567451,46.354
0.000568957,46.4411
0.000570431,46.542
0.000571939,46.7069
0.000573435,46.806
0.000574939,46.9589
0.000576433,47.1001
0.000577941,47.16
0.000579462,47.3813
0.000580952,47.7315
0.000582412,47.7382
0.000583931,47.7792
0.000585452,47.9401
0.000586973,48.1111
0.000588414,48.2381
0.000589933,48.4638
0.00059143,48.5014
0.000592955,48.6487
0.000594456,48.8174
0.00059594,48.9849
0.000597469,49.1008
0.000598949,49.214
0.000600458,49.4845
0.000601936,49.4534
0.000603437,49.6763
0.000604957,49.7055
0.000606413,49.8505
0.000607911,50.0008
0.000609429,50.1523
0.000610957,50.2579
0.000612454,50.3615
0.000613914,50.4898
0.000615441,50.6211
0.000616986,50.6958
0.000618451,50.818
0.000619933,51.0656
0.000621429,50.9818
0.000622981,51.1744
0.000624414,51.368
0.000625906,51.5523
0.000627423,51.5979
0.000628927,51.7488
0.000630411,51.8813
0.000631878,51.9942
0.0006334,52.1271
0.000634905,52.1381
0.000636433,52.4726
0.000637896,52.5122
0.00063941,52.6821
0.000640954,52.7984
0.000642429,52.8952
0.000643904,53.0226
0.000645426,53.1125
0.000646916,53.26
0.000648431,53.3674
0.000649903,53.5833
0.000651397,53.7344
0.000652961,53.8119
0.000654415,53.9918
0.000655902,54.1947
0.000657419,54.3003
0.000658903,54.3715
0.000660427,54.603
0.000661905,54.7447
0.000663407,54.8261
0.000664942,54.9799
0.000666452,55.1106
0.000667914,55.1703
0.000669403,55.3447
0.000670927,55.5006
0.00067243,55.5844
0.000673915,55.7168
0.000675394,55.9271
0.000676935,56.0249
0.000678415,56.1439
0.000679884,56.2754
0.000681408,56.4354
0.000682886,56.5577
0.000684404,56.6834
0.000685905,56.7829
0.000687418,57.005
0.000688909,57.0859
0.000690423,57.3383
0.000691909,57.3412
0.000693402,57.5675
0.000694899,57.7852
0.000696438,57.9639
0.000697893,58.0683
0.00069938,58.2432
0.000700904,58.4841
0.000702404,58.6066
0.000703913,58.8522
0.00070539,58.9882
0.000706883,59.1954
0.000708407,59.2959
0.000709902,59.4903
0.000711405,59.6804
0.000712917,59.8538
0.000714397,59.9707
0.000715906,60.171
0.000717416,60.2922
0.000718892,60.4319
0.000720428,60.7451
0.00072189,60.7232
0.00072339,60.8745
0.000724881,61.1786
0.00072639,61.2853
0.00072788,61.4055
0.00072941,61.5426
0.000730874,61.7739
0.0007324,61.8466
0.000733911,61.9339
0.000735393,62.0616
0.000736895,62.1854
0.000738409,62.4357
0.000739947,62.4931
0.000741416,62.6885
0.00074289,62.8214
0.000744414,62.9489
0.000745941,63.1469
0.000747439,63.2582
0.000748865,63.3983
0.000750374,63.6155
0.000751885,63.7911
0.000753373,63.9227
0.000754896,64.0722
0.000756386,64.2057
0.000757884,64.2963
0.00075938,64.5368
0.000760883,64.7011
0.00076239,64.8605
0.000763929,64.9819
0.000765393,65.1776
0.000766887,65.2927
0.000768417,65.4507
0.000769894,65.6123
0.000771412,65.75
0.000772873,65.8589
0.000774387,66.0105
0.000775878,66.2671
0.000777386,66.2897
0.000778874,66.4547
0.000780376,66.6472
0.000781896,66.7464
0.000783403,66.849
0.000784875,67.0247
0.000786393,67.2556
0.000787864,67.3253
0.000789382,67.3796
0.000790876,67.5805
0.000792357,67.769
0.000793871,67.8606
0.000795368,68.0168
0.000796889,68.2289
0.00079836,68.3449
0.000799878,68.4991
0.0008014,68.6569
0.000802877,68.8092
0.000804371,68.9288
0.000805875,69.18
0.000807374,69.2314
0.0008089,69.457
0.000810381,69.5919
0.000811911,69.7041
0.000813369,69.8342
0.000814871,69.9958
0.000816369,70.0895
0.000817872,70.2422
0.000819379,70.3338
0.000820872,70.475
0.000822379,70.6658
0.00082387,70.8124
0.000825373,70.9676
0.000826894,71.0097
0.000828367,71.2275
0.000829864,71.288
0.000831364,71.3931
0.000832896,71.5485
0.000834377,71.6623
0.000835865,71.8053
0.000837384,71.8985
0.00083887,71.9375
0.000840378,72.1377
0.000841874,72.2218
0.000843374,72.3603
0.000844897,72.4906
0.000846365,72.6293
0.00084786,72.7155
0.00084938,72.9194
0.000850861,73.0804
0.000852382,73.1876
0.000853862,73.3006
0.000855391,73.4044
0.000856882,73.416
0.000858386,73.6973
0.000859873,73.7503
0.000861349,73.9721
0.000862873,74.1031
0.000864362,74.1898
0.000865853,74.2478
0.000867347,74.4189
0.000868844,74.5388
0.000870364,74.6386
0.000871863,74.7801
0.000873345,74.8783
0.000874845,75.0161
0.000876338,75.201
0.00087789,75.3322
0.000879378,75.3639
0.000880871,75.4574
0.000882386,75.6252
0.000883879,75.7095
0.000885354,75.9542
0.00088687,75.9646
0.000888357,76.1998
0.000889876,76.2842
0.000891354,76.2878
0.000892845,76.4405
0.000894333,76.5616
0.000895843,76.7415
0.000897361,76.8413
0.000898839,76.8865
0.000900363,77.0481
0.000901848,77.0811
0.000903349,77.1917
0.000904847,77.3559
0.000906379,77.448
0.000907866,77.6331
0.000909353,77.7077
0.000910849,77.7689
0.00091236,77.9297
0.000913834,78.0502
0.000915356,78.0293
0.000916816,78.2497
0.000918361,78.3278
0.000919829,78.443
0.00092135,78.5003
0.000922846,78.6618
0.00092437,78.7367
0.000925848,78.8905
0.000927362,78.8878
0.00092887,79.0265
0.000930368,79.1514
0.000931835,79.2486
0.000933345,79.3272
0.000934846,79.5421
0.000936358,79.5567
0.000937834,79.597
0.000939352,79.6886
0.000940836,79.8209
0.000942351,79.8068
0.000943872,79.9601
0.000945336,80.0654
0.000946843,80.176
0.000948359,80.2665
0.00094985,80.2605
0.000951381,80.4013
0.000952851,80.5636
0.000954352,80.7226
0.000955848,80.725
0.000957356,80.8441
0.000958829,80.9307
0.00096034,80.9944
0.000961843,81.1138
0.000963331,81.3359
0.000964814,81.3084
0.000966335,81.4566
0.000967834,81.6084
0.00096932,81.63
0.00097083,81.6853
0.000972326,81.8148
0.00097385,81.9341
0.00097533,81.999
0.000976824,82.106
0.000978338,82.2072
0.000979828,82.302
0.000981333,82.4205
0.00098287,82.4189
0.000984349,82.5812
0.000985846,82.6623
0.000987352,82.6107
0.000988885,82.7806
0.000990394,82.8156
0.000991874,82.9076
0.000993404,82.8742
0.000994894,83.0168
0.000996419,83.1936
0.000997927,83.2478
0.000999428,83.2892
0.00100092,83.3461
0.00100241,83.428
0.0010039,83.4758
0.0010054,83.5536
0.00100694,83.6962
0.00100841,83.7256
0.00100992,83.7816
0.00101135,83.8449
0.00101295,83.8864
0.00101443,84.0246
0.00101597,84.0139
0.00101745,84.209
0.00101894,84.1738
0.00102046,84.2924
0.00102193,84.3585
0.00102347,84.3043
0.00102498,84.52
0.00102647,84.5536
0.00102794,84.6035
0.00102944,84.6504
0.00103096,84.7098
0.00103243,84.7529
0.00103393,84.8114
0.00103543,84.8588
0.00103694,84.9739
0.00103842,85.0275
0.00103992,85.1381
0.00104147,85.1467
0.00104295,85.2135
0.00104447,85.3393
0.00104595,85.244
0.00104745,85.2424
0.00104895,85.3752
0.00105045,85.5137
0.00105194,85.5404
0.00105342,85.5341
0.00105495,85.5459
0.00105645,85.6639
0.00105791,85.7412
0.00105942,85.7758
0.0010609,85.7928
0.00106243,85.8931
0.00106392,85.8276
0.00106542,85.9501
0.00106696,85.9662
0.00106843,86.0202
0.00106993,85.9727
0.00107146,86.0938
0.00107293,86.1739
0.00107443,86.2287
0.00107593,86.349
0.00107742,86.3595
0.00107894,86.3027
0.00108043,86.3494
0.00108191,86.3734
0.00108341,86.4362
0.00108491,86.5254
0.00108646,86.5354
0.00108794,86.5666
0.00108943,86.6561
0.00109096,86.6294
0.00109244,86.702
0.00109394,86.7737
0.00109545,86.8128
0.00109694,86.8302
0.00109843,86.9409
0.00109995,86.8753
0.00110142,87.0343
0.0011029,87.0807
0.00110444,87.1196
0.00110591,87.0913
0.00110741,87.2191
0.00110893,87.1046
0.00111042,87.1519
0.00111193,87.1889
0.00111342,87.2646
0.00111493,87.3283
0.00111643,87.3847
0.00111792,87.3157
0.00111943,87.381
0.00112091,87.4118
0.00112242,87.4912
0.00112392,87.5055
0.00112541,87.5517
0.0011269,87.4784
0.00112841,87.5767
0.00112993,87.5599
0.00113141,87.6302
0.00113289,87.683
0.0011344,87.7508
0.00113592,87.7048
0.00113741,87.7451
0.00113891,87.7782
0.00114042,87.8122
0.00114191,87.833
0.00114342,87.9253
0.00114494,87.8153
0.00114641,87.9406
0.00114791,87.9173
0.00114941,87.9553
0.0011509,88.0128
0.00115242,87.9172
0.00115389,87.9569
0.0011554,87.9243
0.00115688,87.9986
0.00115842,88.0318
0.0011599,88.0855
0.00116143,88.0596
0.00116292,88.0861
0.00116442,88.1149
0.00116593,88.0886
0.00116741,88.078
0.00116892,88.1954
0.00117045,88.1909
0.00117191,88.0717
0.00117341,88.0753
0.00117491,88.1273
0.00117641,88.1397
0.00117791,88.2569
0.0011794,88.2374
0.00118091,88.2379
0.00118241,88.2611
0.00118392,88.2305
0.00118542,88.2746
0.00118694,88.2733
0.00118841,88.2748
0.00118993,88.3167
0.00119143,88.291
0.00119292,88.3707
0.00119441,88.2835
0.00119591,88.3897
0.00119742,88.3642
0.0011989,88.3984
0.00120038,88.2993
0.00120189,88.3186
0.0012034,88.3279
0.00120489,88.2613
0.00120638,88.2888
0.00120791,88.4219
0.00120939,88.3646
0.00121089,88.3809
0.0012124,88.3161
0.00121391,88.3766
0.00121542,88.3546
0.0012169,88.3664
0.00121843,88.406
0.00121991,88.4833
0.00122139,88.5112
0.00122289,88.509
0.00122439,88.4831
0.00122591,88.4442
0.00122739,88.4884
0.00122888,88.4836
0.0012304,88.5116
0.00123187,88.4818
0.00123339,88.4171
0.00123492,88.4949
0.0012364,88.4472
0.00123791,88.481
0.00123939,88.4437
0.0012409,88.424
0.0012424,88.488
0.00124389,88.432
0.00124541,88.5419
0.0012469,88.5087
0.00124839,88.4427
0.00124989,88.4201
0.00125139,88.4617
0.0012529,88.4891
0.00125439,88.4281
0.00125588,88.47
0.0012574,88.4522
0.00125891,88.4952
0.00126038,88.5197
0.0012619,88.5216
0.00126342,88.5791
0.0012649,88.5121
0.00126638,88.56
0.00126788,88.5567
0.00126938,88.5799
0.00127088,88.5099
0.00127237,88.6277
0.00127389,88.561
0.00127539,88.5252
0.0012769,88.4372
0.00127839,88.4599
0.00127989,88.461
0.0012814,88.4768
0.00128288,88.5066
0.00128438,88.461
0.00128589,88.49
0.00128739,88.453
0.0012889,88.4128
0.00129037,88.451
0.00129189,88.3928
0.00129338,88.4508
0.00129487,88.4206
0.00129638,88.4226
0.00129786,88.4749
0.00129936,88.4179
0.00130087,88.5856
0.00130239,88.6418
0.00130387,88.7576
0.00130537,88.7932
0.00130689,88.8391
0.00130837,88.8652
0.00130987,88.8908
0.00131137,88.8756
0.00131285,89.0034
0.00131436,88.9584
0.00131585,88.9695
0.00131738,88.8951
0.00131889,88.9088
0.00132039,88.9751
0.00132186,88.8815
0.00132338,88.95
0.00132486,89.0409
0.00132636,89.0136
0.00132787,88.9405
0.00132938,88.9586
0.00133086,88.9683
0.00133236,88.9735
0.00133388,88.8943
0.00133538,88.915
0.0013369,88.8157
0.00133837,88.85
0.00133987,88.8583
0.00134136,88.8298
0.00134291,88.7959
0.00134436,88.936
0.00134586,88.8129
0.00134738,88.6683
0.00134889,88.8291
0.00135038,88.8782
0.00135186,88.7473
0.00135335,88.8835
0.00135488,88.8109
0.00135638,88.7278
0.00135786,88.9025
0.00135937,88.7971
0.00136087,88.5635
0.00136241,88.7528
0.00136387,88.6744
0.00136536,88.6914
0.00136687,88.6149
0.00136838,88.6336
0.00136984,88.7312
0.00137135,88.7326
0.00137283,88.7045
0.00137437,88.7017
0.00137589,88.6685
0.00137736,88.8111
0.00137886,88.7424
0.00138036,88.6989
0.00138187,88.6765
0.00138335,88.5538
0.00138486,88.6461
0.00138635,88.5803
0.00138785,88.5203
0.00138934,88.4961
0.00139085,88.5989
0.00139235,88.4409
0.00139383,88.3339
0.00139533,88.3768
0.00139684,88.3214
0.00139834,88.3581
0.00139985,88.3453
0.00140135,88.3916
0.00140284,88.3111
0.00140438,88.2943
0.00140586,88.2266
0.00140737,88.1966
0.00140886,88.1741
0.00141035,88.2554
0.00141185,88.1754
0.00141334,88.1465
0.00141484,88.2159
0.00141633,88.2605
0.00141784,88.2037
0.00141938,88.2214
0.00142084,88.0415
0.00142235,88.2268
0.00142385,88.1955
0.00142535,88.2605
0.00142687,87.9945
0.00142835,88.0951
0.00142986,88.1722
0.00143136,88.0531
0.00143286,87.997
0.00143435,88.0405
0.00143586,87.9847
0.00143734,87.9274
0.00143885,87.8392
0.00144037,87.8733
0.00144183,87.8135
0.00144334,87.84
0.00144483,87.8845
0.00144634,87.7162
0.00144788,87.6877
0.00144935,87.6858
0.00145084,87.7526
0.00145237,87.6941
0.00145387,87.5611
0.00145536,87.6111
0.00145685,87.5604
0.00145834,87.6542
0.00145984,87.6066
0.00146136,87.43
0.00146283,87.5795
0.00146433,87.4623
0.00146584,87.4066
0.00146734,87.4812
0.00146884,87.4379
0.00147034,87.4602
0.00147185,87.3382
0.00147335,87.5104
0.00147485,87.4198
0.00147634,87.3386
0.00147784,87.2862
0.00147936,87.2541
0.00148081,87.3578
0.00148232,87.3105
0.00148383,87.2522
0.00148534,87.2519
0.00148684,87.2674
0.00148832,87.2938
0.00148983,87.1182
0.00149132,87.2321
0.00149284,87.1369
0.00149433,87.0978
0.00149584,86.9217
0.00149738,86.932
0.00149883,86.8722
0.00150034,86.7326
0.00150161,-0.21964
0.0015033,-0.378201
0.00150485,-0.299834
0.00150634,-0.342909
0.00150783,-0.35125
0.00150936,-0.355995
0.00151081,-0.344995
0.00151231,-0.339829
0.00151383,-0.246742
0.00151534,-0.362999
0.00151683,-0.301949
0.00151833,-0.418927
0.00151983,-0.323984
0.00152135,-0.361663
0.00152283,-0.377638
0.00152433,-0.298763
0.00152582,-0.321379
0.00152735,-0.424852
0.00152886,-0.357104
0.00152933,-0.289126