File: data/PrimaryData/Brass/Tensile_test_5.csv
Displacement (mm),Load (N)
0.00129899,2.56353
0.00178742,3.09434
0.00162734,3.72819
0.00151549,2.71801
0.00152644,2.28551
0.00148729,2.71491
0.00144861,3.5961
0.00175402,3.92412
0.0015299,3.34839
0.0016114,4.04277
0.00136874,4.3429
0.00184711,6.74818
0.00165218,5.63373
0.00153122,4.80184
0.00135093,6.6972
0.00183811,8.79548
0.00176154,9.80744
0.00154328,7.54084
0.00162667,10.6854
0.00157192,11.63
0.00159483,12.2646
0.00153837,13.7066
0.00158867,16.5165
0.0013982,15.5941
0.00152413,20.3337
0.00191819,21.4986
0.00154151,21.9266
0.00193008,23.8862
0.00144659,25.7591
0.00191633,29.7586
0.00202735,30.8569
0.00181308,31.05
0.00208695,33.6019
0.00148165,32.9952
0.00188834,37.9517
0.00183628,39.6443
0.00206508,43.1592
0.00193275,44.618
0.00181374,46.3471
0.00238892,51.9595
0.00211293,55.364
0.00199403,61.0601
0.00229287,65.0613
0.00217098,71.2851
0.00241764,76.2086
0.00238521,80.2111
0.0026763,87.4194
0.00246385,92.4562
0.00253029,100.964
0.00266472,106.463
0.00282182,112.724
0.00259394,117.735
0.00255592,125.14
0.00298949,132.864
0.00310193,139.803
0.00284552,147.625
0.0029458,154.783
0.00289948,163.041
0.00298017,171.813
0.0032546,182.303
0.0033467,191.638
0.0036153,203.567
0.00379739,213.832
0.0036594,221.896
0.00392325,232.252
0.00368204,240.571
0.00388318,249.017
0.00416851,260.023
0.00438097,269.981
0.00434986,281.405
0.00440763,289.378
0.00455487,301.067
0.00484431,312.385
0.00481244,324.683
0.00477223,335.373
0.00507736,350.05
0.00519573,362.896
0.00529272,375.768
0.00549666,387.411
0.00564354,400.175
0.00568173,413.323
0.0057939,423.501
0.00592459,437.29
0.00617923,450.49
0.0063037,464.524
0.00662008,479.873
0.00683609,493.907
0.00672266,507.975
0.00631058,520.726
0.00717955,535.944
0.006786,548.564
0.00721924,561.314
0.00721427,575.888
0.00760293,590.471
0.00762127,605.484
0.00789865,622.19
0.00827743,638.21
0.00801519,653.641
0.00812085,670.342
0.00859864,684.791
0.00882976,699.555
0.00846293,714.207
0.00894977,729.263
0.00878028,743.237
0.00922391,763.094
0.00939481,779.568
0.00969033,798.141
0.00959071,810.608
0.0100154,824.453
0.0104749,839.74
0.0104581,853.952
0.0106847,870.304
0.0107569,887.506
0.0107105,902.588
0.0113444,919.573
0.0111576,933.708
0.0114901,947.341
0.0115344,959.244
0.0114755,969.795
0.0119061,983.871
0.0118766,994.727
0.0124843,1007.11
0.0126652,1014.99
0.0124242,1020.7
0.0124402,1026.51
0.0126117,1029.64
0.0129154,1033.46
0.0125961,1033.97
0.012894,1032.49
0.0128506,1030.56
0.0127656,1028.31
0.012915,1028.32
0.0130046,1028.67
0.0132821,1033.85
0.013131,1037.66
0.0132777,1045.67
0.0134804,1050.8
0.0134854,1054.64
0.013335,1059
0.0136174,1067.35
0.0141122,1078.19
0.0136736,1083.64
0.0141014,1091.49
0.0142013,1096.44
0.0139341,1102.69
0.0141128,1110.91
0.01449,1121.56
0.0144566,1129.16
0.0145561,1134.66
0.0146588,1139.16
0.0146863,1145.67
0.0149493,1154.48
0.0152454,1165.64
0.0149745,1170.26
0.0151998,1174.22
0.0153095,1179.96
0.0156226,1188.01
0.0153259,1197.76
0.0156965,1202.63
0.0156712,1207.22
0.0159764,1210.78
0.0156062,1217.29
0.015793,1225.18
0.0158641,1232.96
0.0160869,1238.14
0.0163047,1244.74
0.0161238,1250.8
0.0165949,1262.66
0.0164603,1269.54
0.0168363,1278.38
0.016645,1275.68
0.0165335,1272.95
0.0166562,1278.57
0.0169564,1283.76
0.0168126,1289.41
0.0169283,1296.73
0.0169524,1304.94
0.017256,1317.13
0.0173228,1323.41
0.0176557,1332.35
0.0177324,1339.58
0.017431,1348.54
0.01757,1355.74
0.0180584,1362.4
0.0175638,1367.15
0.0180348,1377.57
0.018228,1386.77
0.0182441,1392.78
0.0181477,1397.85
0.0183905,1407.36
0.0187343,1418.19
0.0184644,1424.83
0.0184912,1429.85
0.0186174,1438.36
0.0190448,1449.22
0.0193606,1457.3
0.0192447,1462.1
0.0193704,1471.41
0.019105,1482.42
0.019482,1489.6
0.0195591,1494.52
0.0197645,1504.58
0.0200282,1515.93
0.0202158,1521.25
0.0201873,1527.96
0.0203872,1538.8
0.0202391,1549.18
0.0200169,1554.67
0.0203409,1564.66
0.0210156,1577.8
0.0210108,1584.22
0.0207418,1589.61
0.0210753,1600.72
0.0210484,1612.82
0.0212914,1619.35
0.021703,1628.86
0.021905,1641.27
0.0218162,1649.16
0.0219859,1656.75
0.0219862,1666.06
0.0219156,1677.72
0.0222342,1686.58
0.0223729,1694.41
0.022345,1707.06
0.0224371,1716.26
0.0225031,1723.18
0.0228291,1735.43
0.0229686,1746.35
0.022958,1753.83
0.0234428,1765.4
0.0234682,1779.51
0.0235615,1787.84
0.0235697,1794.83
0.0239678,1808.94
0.0240395,1817.67
0.0242,1825.32
0.0242749,1838.94
0.0245508,1851.3
0.0247163,1858.02
0.0246624,1870.46
0.0246665,1881.11
0.0248449,1890.42
0.0251846,1903.57
0.025488,1916.03
0.0256487,1924.53
0.0254879,1935.63
0.0256673,1947.21
0.0261306,1954.93
0.0263831,1967.93
0.0262769,1981.81
0.0263868,1990.03
0.0264785,2002.91
0.0267834,2013.96
0.0270822,2023.68
0.0269418,2035.77
0.027312,2049.44
0.0273356,2059.15
0.0275938,2075
0.0277448,2083.03
0.0276267,2094.05
0.0281865,2109.71
0.0281588,2117.71
0.0283305,2129.01
0.0286557,2143.84
0.0289934,2154.3
0.0288235,2169.24
0.0289872,2181.58
0.0294038,2191.54
0.0294575,2205.71
0.0296156,2219
0.0298934,2230.35
0.0299438,2245.24
0.0300225,2253.44
0.0302193,2268.58
0.0303907,2282.16
0.0305344,2291.9
0.0307641,2309.96
0.0312578,2321.37
0.0310926,2332.87
0.0315619,2348.18
0.0316268,2358.84
0.0319325,2376.66
0.0319811,2386.75
0.0321405,2400.88
0.03266,2413.89
0.0324976,2425.66
0.0327132,2442.58
0.0328122,2453.74
0.0331443,2467.87
0.0332388,2481.76
0.0332733,2492.58
0.0336019,2509.53
0.0337025,2520.89
0.034213,2536.56
0.0342531,2551.37
0.0341677,2563.86
0.0346032,2581.62
0.0348376,2592.47
0.0351842,2610.92
0.0351583,2620.16
0.035272,2636.38
0.0356052,2650.96
0.0359741,2665.4
0.0362872,2681.15
0.036382,2691.96
0.0364232,2710.52
0.0367854,2722.18
0.0369135,2739.94
0.0369004,2752.55
0.0371011,2769.98
0.0378091,2782.95
0.0378631,2797.06
0.0378588,2815.41
0.0383379,2827.97
0.038579,2845.43
0.0386842,2857.15
0.0387441,2874.24
0.0391017,2888.51
0.0394845,2908
0.0393567,2920.08
0.0396901,2939.55
0.0397515,2952.99
0.0400881,2969.56
0.0404441,2985.55
0.0405805,3001.64
0.0405461,3015.44
0.0408438,3031.44
0.0409731,3048.57
0.0414084,3063.1
0.0412662,3079.1
0.0417944,3096.04
0.0423796,3115.55
0.0425111,3128.89
0.0427367,3145.85
0.0429938,3160.52
0.0429868,3178.01
0.0432955,3193.07
0.0433217,3210.98
0.0436215,3226.55
0.0440297,3245.94
0.0443153,3262.61
0.0440497,3278.38
0.044559,3293.5
0.0451791,3313.07
0.0451758,3329.65
0.0456451,3345.83
0.0459701,3394.18
0.0461447,3392.79
0.0461201,3406.79
0.0464907,3421.88
0.0466621,3439.03
0.0467007,3455.2
0.0471774,3474.92
0.0476548,3495.06
0.0479824,3510.8
0.0479017,3530.54
0.0484407,3547.59
0.0488643,3568.36
0.0487091,3582.64
0.04897,3602.74
0.0492464,3619.97
0.0495657,3639.9
0.0495067,3656.75
0.0498894,3674.62
0.0504206,3696.37
0.0504107,3712.26
0.0507198,3733.09
0.051021,3749.34
0.0514423,3770.47
0.0515887,3786.84
0.0520195,3806.88
0.0521515,3826.1
0.0521385,3842.61
0.0527992,3865.03
0.053091,3881.37
0.0534145,3904.63
0.0532648,3922.08
0.0537486,3940.04
0.0541296,3961.47
0.0543818,3979.39
0.0546067,4000
0.0547534,4016
0.0552334,4038.07
0.0557631,4060
0.0558266,4076.94
0.0561601,4097.75
0.056349,4117.33
0.056873,4138.54
0.0567198,4159.58
0.0573017,4174.22
0.0573548,4197.95
0.0577774,4217.46
0.0579453,4236.68
0.0582775,4260.65
0.0586699,4279.28
0.058919,4299.68
0.0595865,4319.47
0.0597851,4339.05
0.0599975,4361.49
0.0605333,4380.62
0.0606042,4399.83
0.060757,4424.18
0.0613478,4443
0.0613741,4465.1
0.0620894,4489.48
0.0619829,4506.34
0.062328,4528.02
0.062822,4551.19
0.0631102,4571.6
0.0633009,4593.52
0.0639148,4616.96
0.0640844,4637.03
0.0647517,4661.37
0.0647561,4683.44
0.0649814,4703.75
0.065457,4726.69
0.065775,4749.9
0.0658383,4769.04
0.0666376,4793.72
0.0668597,4815.85
0.0673156,4834.98
0.0674606,4859.65
0.0674353,4880.6
0.0681975,4901.89
0.068551,4923.98
0.0690529,4950.23
0.069114,4969.9
0.0696797,4991.25
0.0698782,5017.64
0.0700011,5037.36
0.0703541,5059.33
0.0709021,5084.45
0.0712602,5107.56
0.0716857,5128.65
0.0720082,5153.17
0.0723794,5178.25
0.0725916,5198.69
0.0730898,5222.96
0.073277,5246.96
0.0737155,5271.6
0.0742186,5293.35
0.0744228,5317.13
0.0748782,5342.77
0.0753989,5366.4
0.0755535,5389.26
0.0758797,5414.42
0.0765899,5438.41
0.0766293,5459.71
0.0771921,5482.27
0.0776445,5509.32
0.0779626,5534
0.0782997,5554.48
0.0786734,5579.37
0.0792224,5605.66
0.0796682,5630.09
0.0800727,5651.26
0.0802591,5676.42
0.0809122,5702
0.0813303,5729.26
0.0818554,5751.53
0.0821695,5776.28
0.0828062,5801.98
0.0829813,5827.28
0.0833372,5850.94
0.083918,5875.24
0.0839329,5900.06
0.0846384,5927.39
0.0851707,5952.13
0.085466,5973.57
0.0858323,5998.89
0.0860841,6026.45
0.0868186,6051.98
0.0875194,6078.4
0.0879169,6100.7
0.0880701,6125.69
0.0887237,6152.4
0.0888893,6179.46
0.0894311,6205.25
0.0901746,6230.99
0.090586,6256.7
0.0908815,6281.41
0.0915461,6311.02
0.0919105,6336.98
0.0923998,6362.73
0.0928863,6387.72
0.0934212,6413.13
0.0938659,6444
0.0943262,6468.97
0.0950068,6496.87
0.0956712,6522.38
0.0958831,6547.99
0.0964323,6575.15
0.0969466,6603.5
0.0974683,6629.49
0.0981649,6658.31
0.0986255,6681.98
0.0988679,6709.85
0.0995872,6736.48
0.100046,6764.33
0.100539,6794.11
0.101234,6821.62
0.101553,6847.91
0.102253,6874.68
0.102967,6903.08
0.103305,6930.25
0.103485,6957.68
0.104197,6985.96
0.104973,7016.8
0.1055,7043
0.10567,7068.52
0.106589,7097.82
0.107022,7124.29
0.107873,7156.08
0.10819,7183.95
0.108608,7212.21
0.109714,7242.19
0.109737,7267.95
0.110449,7296.54
0.110886,7322.79
0.111826,7353
0.112465,7381.91
0.112962,7408.8
0.113672,7438.43
0.114285,7468.87
0.114834,7497.68
0.115546,7526.82
0.116135,7556.19
0.116744,7585.18
0.117126,7610.9
0.117769,7640.1
0.118804,7669.46
0.119161,7697.1
0.119898,7726.08
0.120476,7755.82
0.12127,7786.4
0.122172,7816.02
0.12244,7845.13
0.123326,7874.35
0.124184,7905.87
0.124767,7935.51
0.125382,7964.42
0.126091,7994.28
0.126753,8021.58
0.127254,8050.17
0.128178,8080.24
0.128877,8109.96
0.129668,8137.87
0.130353,8167.8
0.13085,8195.75
0.131562,8226.57
0.132444,8256.53
0.133269,8286.24
0.133859,8315.45
0.134589,8344.75
0.135442,8372.97
0.135926,8404.37
0.13656,8432.67
0.137655,8464.83
0.138452,8493.05
0.138829,8521.69
0.140144,8554.22
0.140377,8584.14
0.14159,8615.38
0.142453,8643.76
0.143242,8675.05
0.143863,8704.85
0.14459,8733.67
0.145486,8765.27
0.146641,8796.5
0.147539,8828.08
0.14853,8857.18
0.148845,8887.16
0.149819,8919.33
0.150858,8951.06
0.151593,8978.625
0.152344,9010.69
0.153434,9041.54
0.154229,9071.08
0.155093,9100.91
0.156063,9131.93
0.157217,9163.2
0.15769,9192.74
0.158897,9221.14
0.159675,9251.81
0.160818,9283.05
0.161675,9313.13
0.162689,9343.27
0.163749,9372.51
0.164759,9402.38
0.165345,9432.01
0.166244,9462.13
0.167497,9492.04
0.168418,9521.74
0.169655,9551.64
0.170415,9583.48
0.171519,9612.57
0.172272,9642.31
0.173255,9670.66
0.174465,9699.98
0.175604,9731.6
0.1766,9736.56
0.179276,9899.09
0.18462,10036
0.188487,10120.7
0.19188,10205.3
0.195238,10284.1
0.198743,10370.8
0.20265,10455.6
0.206485,10539.3
0.210024,10621.4
0.21398,10703.9
0.218022,10785.6
0.22229,10866.4
0.226318,10948.3
0.230405,11026.6
0.235082,11104.7
0.239753,11184.9
0.244251,11261.6
0.249248,11337.2
0.253874,11413
0.259068,11484.5
0.263953,11556
0.269323,11626.9
0.274649,11695.8
0.280286,11761.9
0.286032,11828.5
0.291444,11892
0.297461,11955.4
0.303796,12019.6
0.310054,12077
0.31621,12135.4
0.322568,12193.3
0.329332,12248.2
0.336215,12301.6
0.343409,12354.7
0.350649,12405.3
0.358161,12455.4
0.366048,12503.1
0.37367,12551.2
0.381747,12593.6
0.39012,12636.5
0.398403,12677
0.407221,12714.7
0.415818,12751.4
0.424809,12790
0.43407,12825.2
0.443253,12855.4
0.453063,12889.1
0.462396,12917.9
0.472176,12946.6
0.48245,12975.75
0.492744,13000.2
0.503374,13025.7
0.513927,13051.3
0.524873,13075.8
0.535619,13097.3
0.547124,13118.7
0.558271,13138.2
0.569695,13158.7
0.581184,13176.9
0.593185,13195.5
0.604984,13211.3
0.617485,13229.5
0.629175,13245.2
0.64149,13259.7
0.653728,13277.3
0.666096,13289.5
0.678737,13302.3
0.691647,13317.4
0.704414,13330
0.717255,13342.2
0.72988,13354.2
0.742854,13366.7
0.756205,13377
0.76957,13391.4
0.783061,13402.2
0.796596,13411.5
0.809923,13421.8
0.823312,13432.4
0.837042,13441.1
0.850577,13451.9
0.864244,13461.5
0.87795,13469
0.891669,13480.9
0.905129,13487.4
0.919293,13495.8
0.932964,13505.2
0.947072,13514.4
0.96087,13520
0.974739,13531.2
0.989104,13539.5
1.00268,13544.5
1.01738,13556
1.0316,13564.1
1.04541,13569.1
1.05953,13575.4
1.07376,13585.7
1.08789,13588.3
1.10249,13598.5
1.11682,13605.9
1.13074,13609.3
1.14484,13619.1
1.15952,13628.6
1.17353,13629.1
1.18798,13639
1.20265,13645.2
1.21653,13649.8
1.23073,13657.6
1.2451,13665.1
1.26293,13668.2
1.28413,13676.6
1.30527,13681.5
1.32646,13687.1
1.34761,13694.1
1.36875,13700.2
1.38994,13704.7
1.41113,13711.25
1.43228,13719.4
1.45342,13722.1
1.47466,13728.6
1.49576,13736.8
1.517,13736.1
1.53814,13745.5
1.55929,13750.6
1.58039,13756.1
1.60158,13760.2
1.62277,13767.4
1.64396,13771.5
1.66515,13775.3
1.68625,13784
1.70739,13786.7
1.72863,13791.4
1.74978,13796.1
1.77092,13799.5
1.79211,13807.6
1.81326,13811.9
1.8344,13815.9
1.85569,13821.3
1.87679,13826.6
1.89798,13830.1
1.91912,13834
1.94031,13841.4
1.96141,13843.6
1.98265,13848.3
2.00375,13852.7
2.02489,13856.1
2.04613,13862.8
2.06728,13868.1
2.08847,13868.4
2.10961,13875.6
2.13076,13880
2.1519,13884
2.17309,13888
2.19428,13892
2.21543,13894.1
2.23667,13900.8
2.25772,13905.1
2.27896,13909.3
2.30015,13913.4
2.32129,13916.7
2.34239,13921.4
2.36358,13926.1
2.38473,13930.2
2.40592,13934.1
2.42711,13935.1
2.44825,13940.2
2.4694,13945.3
2.49059,13949.8
2.51174,13950.9
2.53293,13956.3
2.55416,13959
2.57526,13962.8
2.59641,13966.4
2.6176,13971.6
2.63874,13974.1
2.65994,13978.3
2.68113,13981.8
2.70227,13984.6
2.72342,13988.2
2.74461,13991.5
2.76575,13995.4
2.7869,13999.8
2.80809,14003.8
2.82923,14007
2.85042,14011.1
2.87157,14014
2.89271,14016.1
2.91386,14019.9
2.93505,14024.5
2.95624,14026
2.97734,14030
2.99858,14033.6
3.01972,14037
3.04087,14040.7
3.06211,14045.1
3.08325,14043.8
3.1044,14050
3.12559,14053.1
3.14669,14055.4
3.16783,14060.7
3.18907,14064.7
3.21021,14064.3
3.2314,14069.5
3.25255,14073.2
3.27369,14073.75
3.29484,14078.6
3.31612,14082.3
3.33722,14082.9
3.35837,14084.9
3.37956,14092
3.4007,14092.2
3.42189,14097.8
3.44309,14099.8
3.46423,14100.2
3.48538,14104.9
3.50652,14109
3.52766,14110.2
3.54886,14113.8
3.57009,14118.4
3.59119,14118.6
3.61238,14122.9
3.63353,14126.9
3.65472,14127.7
3.67586,14129.5
3.69706,14133.4
3.7182,14135.7
3.73939,14139.375
3.76054,14143.7
3.78173,14141.7
3.80292,14146.8
3.82406,14149.7
3.84516,14151.4
3.8664,14157.1
3.88755,14158.4
3.90864,14159.7
3.92984,14164.2
3.95103,14166.8
3.97212,14166.9
3.99341,14171.3
4.01451,14174.7
4.0357,14174.5
4.0568,14177.5
4.07804,14182.1
4.09913,14181.8
4.12032,14185.1
4.14152,14189
4.16266,14190.2
4.1839,14194.1
4.20504,14197.1
4.22619,14197.2
4.24738,14201
4.26852,14205
4.28962,14204
4.31081,14209.7
4.33201,14213
4.3531,14212.9
4.37439,14216
4.39549,14220.8
4.41663,14221.4
4.43782,14222.6
4.45901,14226.3
4.48011,14226.9
4.50135,14231
4.52245,14235.3
4.54364,14233.5
4.56488,14238.5
4.58607,14242.2
4.60717,14241.1
4.62836,14244.9
4.6495,14248.6
4.6706,14248.1
4.69184,14251.1
4.71303,14254.9
4.73408,14254.3
4.75541,14259.5
4.77651,14263.5
4.7977,14262
4.81885,14265.7
4.84004,14269.3
4.86109,14267.625
4.88238,14270.3
4.90352,14274
4.92467,14273.7
4.9459,14279
4.96705,14282.5
4.9881,14282.7
5.00939,14282.9
5.03053,14287.2
5.05163,14287.5
5.07282,14291.2
5.09401,14294.6
5.11511,14293.7
5.13639,14296.7
5.15754,14301.4
5.17864,14301
5.19983,14302.5
5.22107,14306.3
5.24212,14306.9
5.26345,14307.1
5.28455,14311.3
5.30565,14314
5.32688,14316.3
5.34807,14318.1
5.36917,14318.1
5.39041,14320.6
5.41156,14324.7
5.43261,14326.9
5.45385,14326.8
5.47504,14329.1
5.49609,14330.7
5.51742,14334
5.53852,14336
5.55966,14337.2
5.58085,14337.3
5.60209,14341.5
5.62314,14343.2
5.64438,14343.7
5.66548,14346.2
5.68662,14348
5.70786,14350
5.72905,14352.1
5.75015,14354.6
5.77139,14355.6
5.79249,14359.1
5.81363,14359.3
5.83487,14361.6
5.85606,14363.4
5.87707,14362.3
5.89835,14368.4
5.91954,14369
5.94069,14370.3
5.96183,14372.5
5.98307,14372.3
6.00412,14375.6
6.02541,14377
6.04651,14378.6
6.0677,14380.6
6.08889,14382
6.11003,14383.6
6.13118,14386.6
6.15237,14388.1
6.17351,14389.1
6.19461,14392
6.2158,14394.4
6.237,14393.3
6.25809,14396.7
6.27938,14397.3
6.30052,14397.9
6.32167,14401.8
6.34281,14402.7
6.364,14404.7
6.38515,14406.6
6.40639,14406.9
6.42748,14407.2
6.44863,14409.9
6.46982,14412.6
6.49106,14412.7
6.51216,14415.5
6.53335,14415.9
6.55449,14417
6.57559,14420.1
6.59683,14421.5
6.61797,14422.2
6.63912,14422.1
6.66036,14426.1
6.68146,14426.9
6.70265,14429.2
6.72379,14433.6
6.74503,14431
6.76613,14433.7
6.78732,14436
6.80846,14436.7
6.82961,14439.6
6.85085,14439.2
6.87199,14441.3
6.89314,14443.3
6.91433,14445.5
6.93552,14446.8
6.95666,14446.3
6.97786,14449.8
6.99895,14447.1
7.0201,14452.3
7.04134,14454.9
7.06248,14453.4
7.08367,14456
7.10482,14457.3
7.12601,14458.7
7.14715,14459.8
7.16835,14463.3
7.18944,14461.8
7.21068,14462.7
7.23183,14466.7
7.25297,14465.6
7.27416,14469.5
7.29535,14470.4
7.3165,14469.3
7.33764,14473.1
7.35883,14474.2
7.37993,14474.8
7.40112,14477.3
7.42236,14479.3
7.44346,14478.4
7.4647,14480.8
7.48584,14483.1
7.50699,14483.7
7.52818,14482.9
7.54937,14486.1
7.57047,14485.5
7.59166,14489.2
7.61285,14489.4
7.63395,14490.5
7.65524,14492
7.67638,14494
7.69748,14494.5
7.71867,14494.6
7.73986,14498.9
7.76096,14498.6
7.7822,14498
7.80334,14501
7.82444,14499.9
7.84568,14502.7
7.86687,14504.7
7.88797,14503.7
7.90916,14507.2
7.93035,14508.4
7.95145,14508
7.97273,14509
7.99388,14511.6
8.01498,14511.2
8.03621,14513.8
8.05736,14516.9
8.0785,14515.7
8.09965,14516.7
8.12089,14519.8
8.14198,14521
8.16318,14519.2
8.18437,14521.8
8.20547,14523.5
8.2267,14522.4
8.24785,14525.2
8.26895,14525.5
8.29019,14526.1
8.31138,14528.7
8.33247,14528
8.35371,14531.1
8.37486,14531.4
8.39595,14531.2
8.41719,14533.6
8.43838,14533.7
8.45948,14535.7
8.48067,14535.8
8.50187,14539.1
8.52292,14538.625
8.5442,14538.1
8.56535,14539.8
8.58644,14540.2
8.60768,14542.5
8.62887,14545.4
8.65002,14544.6
8.67121,14545.6
8.6924,14544.8
8.71345,14547.6
8.73469,14548.5
8.75588,14549.3
8.77698,14551.3
8.79827,14551.2
8.81936,14552.5
8.84051,14553
8.86165,14555.5
8.88289,14555.4
8.90394,14557.2
8.92518,14557.8
8.94633,14558.1
8.96742,14560.3
8.98871,14559.6
9.0099,14559.2
9.031,14562
9.05219,14563
9.07333,14563.5
9.09448,14563.2
9.11572,14565.1
9.13691,14564.7
9.15796,14565.7
9.1792,14568.2
9.20039,14566.7
9.22153,14570.1
9.24268,14570.4
9.26392,14571.3
9.28497,14572.6
9.30621,14574.2
9.32731,14573.6
9.34845,14574.9
9.36969,14575.5
9.39088,14575.1
9.41198,14579.1
9.43322,14578
9.45436,14577.1
9.47551,14577.1
9.49665,14581.6
9.51784,14580.5
9.53889,14582
9.56018,14583
9.58132,14582.6
9.60251,14585.3
9.62366,14584.5
9.64485,14586.3
9.66595,14585.3
9.68714,14587.6
9.70828,14586.2
9.72943,14588.6
9.75057,14590.8
9.77181,14589.9
9.79296,14591.5
9.81419,14592.3
9.83534,14589.2
9.85644,14593.5
9.87763,14593.4
9.89882,14593
9.91997,14595.2
9.9412,14595.625
9.9623,14595.5
9.98349,14597.5
10.0046,14599.4
10.0259,14598.8
10.047,14600.4
10.0682,14600.9
10.0893,14600.2
10.1105,14602.8
10.1316,14602.9
10.1528,14601.2
10.174,14603.1
10.1952,14604.8
10.2163,14604.5
10.2375,14603.5
10.2587,14608.8
10.2799,14606.1
10.3009,14607.1
10.3222,14609.8
10.3434,14607.5
10.3646,14608.4
10.3857,14611
10.4069,14611.9
10.428,14611
10.4492,14612.2
10.4703,14613.1
10.4915,14610.7
10.5127,14614.5
10.5338,14612
10.555,14615
10.5762,14616.2
10.5973,14615.5
10.6185,14614.9
10.6397,14617.5
10.6608,14618.9
10.682,14618.1
10.7032,14619.8
10.7243,14618.4
10.7455,14618.8
10.7666,14623.1
10.7878,14620.6
10.809,14621.2
10.8302,14623.5
10.8513,14621.9
10.8725,14623
10.8937,14623.2
10.9148,14622.2
10.936,14624.6
10.9572,14624.7
10.9783,14625.2
10.9995,14623.7
11.0207,14627.8
11.0418,14625.2
11.0629,14626.5
11.0842,14629.5
11.1053,14626.6
11.1265,14626.5
11.1477,14629.9
11.1688,14630.9
11.1899,14628.7
11.2111,14631.6
11.2322,14632.5
11.2534,14629.2
11.2746,14631
11.2958,14629
11.317,14629
11.3382,14632.1
11.3593,14633.5
11.3804,14631.7
11.4017,14634.6
11.4228,14633.4
11.4439,14633.3
11.4652,14633
11.4863,14636.2
11.5075,14633.4
11.5287,14635
11.5498,14636.6
11.571,14635.6
11.5922,14638.3
11.6133,14636.8
11.6345,14635.5
11.6557,14636.1
11.6768,14637.3
11.6979,14635.6
11.7192,14637.7
11.7403,14639
11.7615,14637.2
11.7827,14638.2
11.8038,14640.1
11.825,14638.4
11.8462,14639.5
11.8673,14639
11.8885,14640.1
11.9097,14640.4
11.9308,14640.9
11.952,14639.7
11.9732,14639.8
11.9943,14641.6
12.0154,14640
12.0366,14641.6
12.0578,14641.7
12.079,14639.4
12.1002,14638.9
12.1213,14642.4
12.1425,14641.3
12.1637,14641.8
12.1848,14641
12.206,14641.2
12.2272,14641.3
12.2483,14643.8
12.2695,14643.3
12.2907,14641.9
12.3118,14645
12.333,14642.2
12.3542,14640.7
12.3753,14644
12.3965,14640.7
12.4177,14642.2
12.4388,14642.3
12.46,14643.2
12.4812,14640.2
12.5023,14646.1
12.5235,14643.4
12.5447,14640
12.5658,14641.9
12.587,14642.5
12.6082,14640.7
12.6293,14642.2
12.6505,14640.8
12.6717,14640.9
12.6928,14641.7
12.7139,14643.6
12.7352,14639.2
12.7563,14640.9
12.7774,14640
12.7986,14638
12.8197,14639.9
12.841,14638.6
12.8622,14638.8
12.8833,14639.1
12.9044,14637.4
12.9256,14637.9
12.9468,14637.8
12.9679,14637.9
12.9891,14634.5
13.0103,14636.4
13.0314,14635.1
13.0526,14634.1
13.0738,14636.8
13.0949,14636.3
13.1161,14632.8
13.1373,14632.7
13.1584,14633.2
13.1796,14631.2
13.2008,14631.3
13.222,14630.1
13.2431,14627.8
13.2643,14628.6
13.2854,14628.5
13.3067,14626.5
13.3278,14625.8
13.349,14625.1
13.3701,14623.8
13.3913,14624.7
13.4124,14622.4
13.4336,14620.9
13.4548,14620.9
13.4759,14621
13.4971,14619.3
13.5183,14618.3
13.5395,14616.6
13.5606,14611.3
13.5818,14614.2
13.6029,14613.5
13.6241,14610.6
13.6454,14610.6
13.6665,14606.6
13.6877,14605.8
13.7088,14604.9
13.73,14603
13.7511,14600.4
13.7724,14599.8
13.7935,14598.4
13.8146,14595.5
13.8358,14595.5
13.857,14594.7
13.8781,14590.9
13.8993,14589.3
13.9205,14587
13.9416,14584.3
13.9628,14583.2
13.984,14579.3
14.0051,14576
14.0264,14576.3
14.0475,14573.8
14.0687,14569.5
14.0898,14566.4
14.111,14565.5
14.1322,14562.4
14.1534,14560.2
14.1745,14556.2
14.1956,14553.2
14.2168,14550.7
14.238,14548.1
14.2591,14544.9
14.2803,14541.7
14.3015,14539
14.3227,14534
14.3438,14529.3
14.365,14526.8
14.3861,14524.3
14.4074,14520.4
14.4285,14516.8
14.4497,14512.6
14.4709,14508.8
14.492,14504.5
14.5131,14498.9
14.5344,14494.7
14.5555,14491.4
14.5767,14486.2
14.5979,14482.8
14.6191,14478.3
14.6402,14474.3
14.6614,14468.4
14.6826,14460.6
14.7037,14457.6
14.7249,14451.2
14.7461,14444
14.7672,14440.1
14.7884,14432
14.8095,14427.1
14.8307,14421.5
14.8519,14413.9
14.8731,14408.8
14.8942,14400.8
14.9154,14395.3
14.9366,14386.4
14.9577,14381.2
14.9788,14374.9
15.0001,14365
15.0212,14358.3
15.0424,14349.7
15.0635,14340.4
15.0847,14331.8
15.1058,14323
15.127,14312.5
15.1481,14304.5
15.1694,14294.5
15.1905,14282.7
15.2117,14275.6
15.2329,14263.6
15.2541,14247.4
15.2751,14238.2
15.2964,14224.2
15.3175,14212.7
15.3387,14202
15.3599,14186.6
15.3811,14171.6
15.4022,14157.6
15.4233,14140.5
15.4445,14118.1
15.4657,14094.4
15.4869,14067.6
15.5081,14036.2
15.5292,13998.7
15.5504,13959.3
15.5716,13906.8
15.5928,13859.9
15.6139,13816
15.6352,13752.2
15.6563,13681.5
15.6775,13558.6
15.6986,13456.7
15.7198,13334.5
15.741,13209.8
15.7622,13080
15.7834,12900.8
15.8046,12610.4
15.8267,6871.77
15.8479,5813.75
15.8692,5072.63
15.8905,4087.84
15.9122,-623.787
15.9141,-4297.26