File: data/PrimaryData/Brass/Tensile_001.csv
Displacement (mm),Load (N)
9.40746e-05,0.73899
-6.7987e-05,-0.297333
0.00021099,0.710695
3.92048e-05,0.331922
0.000237616,1.45026
0.000287397,0.829772
0.00035884,0.478015
0.000348426,1.29414
0.000482415,1.36571
0.000220367,1.4128
0.000148141,1.83066
0.000262447,3.16769
0.000262925,2.58717
0.000250311,3.15878
0.000200341,3.7807
0.000238302,4.9684
-4.08091e-05,4.65772
7.55258e-05,6.66458
0.000234127,7.24812
0.000275277,7.87217
0.00023099,10.1354
5.43558e-05,10.1027
0.000154162,10.503
0.000115972,11.8501
0.000144325,11.6729
8.32248e-05,10.8293
9.60528e-05,13.1967
0.000231284,12.5864
0.000366922,14.1809
0.000168839,13.7884
0.000117183,15.7329
6.98851e-05,17.5727
0.000140222,19.0588
0.000263172,21.3673
0.000185268,23.8273
0.000314471,24.7456
0.000459136,27.9276
0.000416422,31.4662
0.000500426,34.2596
0.000368021,36.3326
0.000673368,39.1893
0.000584044,42.4565
0.000715292,47.1481
0.000481494,49.9362
0.000703119,55.0442
0.000861228,55.8608
0.000935911,59.9355
0.000691065,63.5258
0.000567565,69.9251
0.000873849,74.6348
0.000764777,80.4334
0.000946026,86.1997
0.00106698,91.2994
0.00127358,96.3275
0.00123418,102.699
0.00121322,108.137
0.00123598,111.987
0.00133642,117.928
0.00156534,123.528
0.0014601,128.324
0.00137962,131.792
0.00154239,138.989
0.00134676,144.253
0.00149792,147.678
0.00141277,153.363
0.0016513,157.236
0.00135864,161.366
0.00161064,164.854
0.00153604,167.647
0.00168494,170.46
0.00156462,173.826
0.00157491,176.952
0.00175692,178.684
0.00185886,183.266
0.00186552,184.695
0.00176578,188.433
0.00159952,190.607
0.00174307,194.182
0.00199144,196.85
0.00184872,199.048
0.00203616,203.02
0.00188544,203.758
0.00198704,205.618
0.00182717,204.024
0.00178566,203.254
0.0015959,199.84
0.00162838,196.454
0.00163029,194.654
0.00161193,193.933
0.00161806,196.649
0.00159412,196.001
0.00159812,198.042
0.00139665,198.463
0.00157595,198.958
0.00152059,199.449
0.00152294,201.051
0.00171683,202.75
0.0017161,207.138
0.00179988,210.867
0.00157591,213.527
0.00180757,215.847
0.00176548,217.046
0.00169725,219.175
0.00174355,220.531
0.00161536,222.603
0.00175617,226.046
0.00158737,228.758
0.00160511,234.527
0.00210439,237.706
0.00180527,240.036
0.0018172,242.136
0.002037,245.343
0.00201419,247.311
0.00206955,251.751
0.0017635,256.319
0.00204382,262.009
0.00192657,264.002
0.00209647,267.393
0.00205122,269.137
0.00221306,272.096
0.00211582,276.519
0.00227668,281.808
0.00217096,286.236
0.00233509,290.914
0.0022557,293.268
0.00213188,296.53
0.00246284,298.423
0.00252679,303.636
0.00213138,309.018
0.0023582,313.431
0.00262697,316.602
0.00229054,317.554
0.00220695,319.248
0.00237933,324.121
0.00259429,328.366
0.00264968,334.154
0.00268685,335.963
0.00228097,339.244
0.00251765,341.61
0.00279778,346.847
0.00256455,352.14
0.00255641,357.077
0.00258241,359.758
0.0027411,362.588
0.00248131,367.665
0.00279632,374.508
0.00293197,379.701
0.00290796,384.249
0.00276727,388.529
0.0027088,391.703
0.00312034,396.219
0.00294487,401.684
0.00285402,407.547
0.00297708,412.016
0.00311746,415.124
0.003018,419.825
0.00310439,427.363
0.00322548,433.43
0.00305624,437.786
0.0031729,440.394
0.0032971,445.313
0.00334297,453.098
0.00339029,458.479
0.00333334,463.017
0.00349647,466.96
0.00326928,472.783
0.00338738,480.48
0.00353115,487.232
0.00339191,490.553
0.00361826,496.183
0.00368685,502.279
0.00366268,508.974
0.00373942,513.817
0.00399994,517.486
0.00382704,524.63
0.00361023,533.168
0.00390995,538.823
0.00362575,542.854
0.00377484,548.128
0.00394212,555.327
0.00393035,562.678
0.00385764,567.154
0.00423217,573.16
0.00411808,579.867
0.00400439,588.644
0.00418101,593.661
0.00410317,597.823
0.00435651,605.797
0.00448843,613.793
0.00468476,618.025
0.00439813,623.792
0.0044358,631.453
0.00462798,639.958
0.00464481,645.673
0.00492403,651.09
0.00471621,659.69
0.00478813,668.267
0.00482978,671.293
0.00471132,679.853
0.00503444,687.359
0.00483541,695.939
0.0050407,701.28
0.00532764,708.664
0.0052467,717.712
0.00545066,724.179
0.00547239,728.952
0.00529281,738.559
0.00533207,748.12
0.00548193,753.788
0.00551979,759.115
0.00551998,770.381
0.0056345,778.168
0.00574757,783.324
0.00556305,791.872
0.00601294,801.606
0.00581297,807.21
0.00581567,815.642
0.00591757,824.034
0.00622002,832.24
0.00597998,838.093
0.00638557,849.264
0.0063766,858.317
0.00624144,864.627
0.006279,874.48
0.00639041,883.845
0.00643747,889.511
0.00649763,899.445
0.00669336,910.011
0.00678718,916.14
0.00682905,924.259
0.00666541,935.163
0.00684362,941.099
0.00693522,950.617
0.00694164,962.319
0.00709223,969.703
0.00726893,977.281
0.00719113,989.524
0.00708014,996.37
0.00737037,1004.35
0.00752361,1018.26
0.00742028,1025.37
0.00762874,1033.7
0.00751599,1045.5
0.00792658,1052.96
0.00741654,1062.54
0.00786634,1074.52
0.00786607,1081.13
0.00821486,1091.22
0.00783942,1103.71
0.00818001,1110.38
0.00844435,1122.76
0.00843111,1133.36
0.00832556,1139.63
0.00857529,1153.87
0.00866824,1162.78
0.00849241,1171
0.00892743,1183.97
0.00870299,1192.62
0.0087446,1203.57
0.00893984,1213.02
0.00909916,1222.31
0.0088856,1236.32
0.00895913,1245.83
0.00927058,1254.87
0.00914235,1268.87
0.00945028,1276.78
0.00953714,1291.1
0.00956146,1299.85
0.00963957,1310.12
0.00970376,1323.37
0.00973902,1332.73
0.0100019,1346.65
0.0100967,1356.54
0.01023,1364.7
0.0104146,1381.11
0.0104493,1390.11
0.0102581,1404.45
0.0107839,1414.68
0.0106276,1426.07
0.0107113,1440.48
0.0107985,1447.46
0.0109084,1463.78
0.010792,1472.81
0.0111045,1486.32
0.0112644,1498.1
0.011342,1509.43
0.0114932,1526.73
0.0116398,1535.56
0.011644,1550.68
0.0117078,1561.17
0.011912,1575.69
0.0120182,1587.42
0.012167,1598.81
0.01209,1613.54
0.0121743,1623.27
0.0121894,1640.76
0.0124023,1650.16
0.0125414,1665.91
0.01274,1676.02
0.0130958,1692.4
0.0127668,1703.71
0.0127954,1718.21
0.0132531,1731.59
0.0132007,1743.22
0.0129154,1759.09
0.0133039,1769.48
0.0135299,1788.81
0.0134965,1797.99
0.0137251,1814.15
0.0138447,1826.42
0.0139966,1842.88
0.0142916,1854.21
0.0141846,1871.9
0.0143607,1882.89
0.0144713,1899.9
0.014494,1911.29
0.0150033,1928.81
0.014843,1940.79
0.0147346,1957
0.0152625,1970.51
0.0153168,1987.94
0.0152854,2002.17
0.0155815,2017.54
0.0156305,2031.31
0.0157056,2048.79
0.0161124,2062.36
0.0161797,2079.64
0.0164337,2092.67
0.0164709,2111.45
0.0165404,2124.67
0.0166125,2142.77
0.0165959,2157.51
0.0171725,2188.26
0.0171401,2195.12
0.0170727,2207.5
0.0172912,2224.62
0.0176672,2241.89
0.0176749,2258.79
0.0177267,2273.4
0.018017,2293.72
0.0181704,2308.53
0.0181272,2327.2
0.0184262,2340.02
0.0187484,2359.03
0.0186614,2373.74
0.0189599,2392.01
0.0189473,2408.7
0.0192278,2425.65
0.01914,2444.67
0.0194783,2461.01
0.0194243,2480.05
0.0196091,2494.47
0.0199244,2513.82
0.0199195,2532.18
0.0203479,2549.32
0.0203411,2566.95
0.0204742,2584.33
0.0207602,2605.64
0.020459,2619.37
0.0210808,2639.65
0.0213653,2658.05
0.0214935,2677.14
0.021623,2693.94
0.0217858,2710.47
0.0218435,2733.14
0.0220028,2749.97
0.0220921,2767.97
0.0224413,2788.36
0.022804,2804.77
0.0228253,2824.93
0.022995,2843.41
0.0231439,2862.43
0.0232603,2883.19
0.023679,2899.1
0.0234308,2919.22
0.0236622,2940.12
0.0239094,2956.72
0.0242222,2979.07
0.0243046,2997.8
0.0244557,3018.48
0.0245397,3038.55
0.0249403,3056.2
0.0249234,3078.24
0.0250743,3098.48
0.0254152,3115.81
0.0255494,3138.97
0.0256201,3157.83
0.0260335,3178.17
0.0260573,3201.23
0.0265047,3220.36
0.0264319,3241.09
0.0268094,3262.2
0.0267621,3282.13
0.0268928,3303.79
0.0273254,3324.02
0.0273471,3344.22
0.0277552,3368.26
0.0280355,3389.75
0.0281676,3409.08
0.0282688,3431.12
0.0286546,3454.36
0.0285078,3472.53
0.0288299,3494.76
0.0292807,3518.03
0.0292803,3539.26
0.0296,3562.23
0.0299508,3586.4
0.0301164,3606.41
0.0303371,3628.5
0.030461,3651.08
0.0308295,3672.52
0.0308698,3695.77
0.03119,3722.32
0.0313317,3747.04
0.0315302,3767.26
0.0316574,3790.99
0.031951,3815.58
0.0321667,3837.17
0.0322583,3861.14
0.0327637,3885.72
0.0328817,3910.87
0.0330971,3931.88
0.0333503,3955.72
0.0335624,3980.91
0.0340094,4004.66
0.0339774,4026.69
0.0340819,4051.18
0.0346283,4077.96
0.0347691,4102.17
0.0349268,4125.79
0.0353121,4150.72
0.0354791,4176.56
0.0359077,4200.27
0.0361923,4223.28
0.036359,4249.97
0.0364897,4275.31
0.0365721,4301.57
0.036871,4325.3
0.03723,4350.94
0.037355,4377.9
0.0378276,4404.93
0.0378603,4425.14
0.0382546,4453.26
0.0385372,4479.1
0.0386469,4507.13
0.0390998,4531.44
0.039206,4556.02
0.0393574,4581.16
0.0396647,4608.36
0.0397971,4634.43
0.040276,4659.92
0.0404018,4686.39
0.0405364,4711.62
0.0409911,4741.19
0.0410737,4768.32
0.0416011,4790.88
0.0418589,4817.29
0.0420212,4844.62
0.0422914,4873.32
0.0426544,4903.48
0.0428063,4926.52
0.0432866,4955.64
0.0434281,4982.82
0.043739,5009.53
0.043943,5040.1
0.0442064,5066.81
0.0444689,5094.05
0.04483,5120.72
0.0451116,5147.02
0.0454544,5175.95
0.0457447,5205.87
0.0461502,5234.38
0.0464294,5261.68
0.0463018,5286.76
0.0467373,5317.55
0.0470729,5346.11
0.0475673,5374.24
0.0477729,5404.99
0.0480732,5434.35
0.0482359,5462.64
0.0486237,5490.95
0.0487492,5518.95
0.0493043,5550.41
0.0498077,5578.99
0.0501025,5609.74
0.049981,5639.75
0.0504578,5667.62
0.0510365,5696.51
0.0510959,5726.17
0.0514982,5752.12
0.051852,5783.99
0.0520568,5813.45
0.0522814,5844.33
0.0528057,5876.09
0.0531892,5906.48
0.0534148,5935.93
0.0536106,5964.16
0.0537897,5994.65
0.0543272,6026.19
0.0546846,6055.55
0.0551284,6087.01
0.0556148,6117.6
0.0557556,6148.15
0.0562608,6181.27
0.0565298,6213.09
0.0569063,6245.15
0.0573323,6276.03
0.0573631,6305.17
0.0577789,6335.36
0.058139,6367.06
0.0586263,6398.76
0.0589909,6428.02
0.0591652,6459.84
0.0595401,6490.22
0.059939,6521.81
0.0601909,6554.17
0.0605584,6585.7
0.0609441,6617.85
0.0613344,6650.59
0.0618523,6684.6
0.0621523,6715.86
0.0625656,6749.48
0.0627872,6780.95
0.0631147,6815.3
0.063759,6847.33
0.0641961,6879.44
0.0645648,6913.51
0.0648226,6944.73
0.0651543,6978.67
0.0655722,7010.49
0.0659049,7044.17
0.0664887,7075.95
0.0666591,7111.23
0.06712,7143.62
0.0676967,7176.94
0.0679323,7209.94
0.0684525,7241.53
0.0688381,7277.12
0.0692116,7310.57
0.0695046,7344.42
0.0699028,7377.82
0.070358,7412.5
0.0706396,7444.06
0.0711293,7479.22
0.0715339,7512.75
0.0721686,7548.84
0.0723878,7581.66
0.0728807,7615.71
0.0732739,7649.58
0.0738043,7685.6
0.074016,7721.99
0.0747976,7755.79
0.07524,7791.47
0.0752791,7825.83
0.0758079,7864.17
0.07652,7900.21
0.0767518,7937.16
0.0773386,7971.72
0.0776604,8009.52
0.0782214,8042.66
0.0785999,8081.25
0.0790535,8115.1
0.0794822,8151.4
0.0800548,8185.05
0.0804381,8222.3
0.0809722,8258.41
0.0812843,8296.39
0.0817266,8332.64
0.0823466,8371.87
0.0830572,8408.94
0.0831863,8447.02
0.0840062,8484
0.0842782,8521.05
0.0847907,8556.25
0.0852666,8592.55
0.0859207,8629.2
0.0861984,8665.31
0.0868409,8701.85
0.0872602,8741.53
0.0880445,8777.48
0.0885275,8815.5
0.089028,8852.73
0.0893106,8889.11
0.0897274,8923.89
0.0904097,8962.36
0.0908712,8997.94
0.0915822,9040.09
0.0923579,9078.61
0.0928724,9116.01
0.0933917,9152.27
0.093917,9189.5
0.094508,9226.92
0.0947969,9266.73
0.0955266,9305.43
0.0964202,9345.2
0.0965842,9381.2
0.0976913,9419.61
0.0980066,9456
0.0984266,9495.66
0.0991936,9536.57
0.101457,9700.56
0.104111,9862.55
0.106007,9969.77
0.108025,10071.4
0.109702,10175.9
0.111672,10285.3
0.113549,10390.4
0.115415,10502.6
0.117285,10606.5
0.1193,10713.6
0.121205,10819.1
0.12374,10925.2
0.125694,11028.5
0.127636,11133.2
0.129941,11237.4
0.132194,11340.8
0.134469,11446.5
0.137039,11552.1
0.139375,11653
0.142023,11758.3
0.144402,11858.2
0.147169,11960.3
0.150096,12060.2
0.152526,12164.4
0.155249,12261.2
0.15807,12359.8
0.161022,12459.8
0.164132,12555.6
0.167044,12651.2
0.170183,12748.2
0.173775,12839.1
0.177138,12932.6
0.18042,13026.4
0.183966,13118.6
0.187699,13209.2
0.191321,13297.9
0.195128,13386.3
0.19877,13472.2
0.203158,13559.6
0.207437,13644.6
0.211835,13726.9
0.216193,13810.2
0.220902,13889.1
0.225473,13968.8
0.230218,14046.2
0.235177,14121.6
0.240274,14196.9
0.245571,14268.7
0.250972,14340.5
0.256737,14408.2
0.262362,14476.1
0.268371,14540.9
0.274254,14602
0.280382,14665.3
0.287099,14725.7
0.29367,14784.4
0.300789,14841.3
0.307627,14895.6
0.314766,14945.6
0.32236,14995.9
0.330102,15045.3
0.337841,15091.6
0.345929,15135
0.353917,15177.8
0.362637,15217.9
0.371099,15258.6
0.380065,15296.2
0.388912,15329.4
0.398463,15362.1
0.407695,15395.2
0.417291,15425.9
0.427513,15454.7
0.437674,15482.9
0.447798,15510.25
0.458086,15533.9
0.469204,15561.5
0.479881,15582.7
0.491014,15604.6
0.502189,15624.8
0.51346,15644.6
0.524621,15664
0.536231,15683.2
0.54816,15701.1
0.560033,15715.3
0.572046,15733.4
0.583958,15748.5
0.59623,15761.6
0.608452,15778.9
0.621264,15791
0.633606,15803
0.645962,15817.4
0.65883,15831.5
0.671484,15841.3
0.684587,15854.1
0.697662,15865.3
0.71076,15875.8
0.723556,15885.3
0.737143,15897.6
0.750587,15905
0.763626,15917.9
0.777058,15926
0.790052,15934.2
0.803365,15946.2
0.817023,15955
0.830261,15962.3
0.843744,15971.9
0.857277,15979.7
0.870845,15987.6
0.884332,15996.7
0.897976,16006.6
0.911682,16011.4
0.925609,16021.3
0.939105,16030
0.953119,16035.1
0.966824,16044.3
0.980451,16050.1
0.994061,16056.6
1.0079,16065.3
1.02205,16074
1.03544,16078.3
1.04907,16086.1
1.06306,16094.4
1.0767,16098.6
1.09049,16107.2
1.10423,16113.5
1.11784,16117.5
1.13209,16124.5
1.14577,16132.5
1.15955,16137.8
1.1735,16145.1
1.1877,16151.5
1.20169,16155
1.21569,16161.2
1.22938,16167.8
1.24317,16172.1
1.25722,16179.2
1.27102,16185.7
1.28492,16188.9
1.29914,16196.3
1.31278,16202
1.3267,16206.9
1.34077,16212.5
1.3545,16219.6
1.36854,16223.1
1.38226,16228.3
1.39637,16235.1
1.41055,16238.2
1.42424,16245.4
1.43823,16250.7
1.45237,16254.1
1.46637,16259.4
1.48043,16265.2
1.49443,16268.4
1.50813,16274.1
1.52216,16279.3
1.53612,16282.8
1.54988,16289.4
1.56395,16295.7
1.57751,16298.1
1.59166,16301.8
1.60521,16308.1
1.61933,16311.2
1.63327,16316.7
1.6473,16320.7
1.66124,16323.3
1.67526,16329.9
1.68938,16335.3
1.70356,16339.7
1.71723,16342.9
1.73139,16349
1.74502,16350.6
1.75946,16356.1
1.77324,16360.3
1.78721,16363.5
1.80117,16369.3
1.81512,16373.4
1.82897,16377.6
1.84282,16382.3
1.85685,16386.2
1.87085,16389.8
1.88463,16392.7
1.89863,16397.8
1.91286,16403.1
1.92643,16406.3
1.94064,16409.2
1.95514,16413.7
1.96898,16415.8
1.98276,16420.7
1.99687,16424.1
2.01104,16428.8
2.02462,16429.8
2.03872,16435.3
2.05266,16439.7
2.06663,16441.4
2.08093,16446.1
2.09472,16449
2.10838,16452.3
2.12263,16456.6
2.13665,16460.5
2.15045,16464.2
2.16432,16468.2
2.17853,16470.5
2.19278,16473.4
2.20665,16479.6
2.22059,16481.8
2.23488,16485.1
2.24889,16487.9
2.263,16491
2.27688,16494.125
2.29118,16497.8
2.30521,16501.9
2.31909,16504.4
2.33329,16507.3
2.34739,16511.1
2.36128,16512.8
2.37528,16518.6
2.38946,16521.2
2.40372,16524.4
2.41783,16528.5
2.43188,16531.6
2.44596,16533.6
2.46019,16538.5
2.47414,16540.4
2.48817,16541.8
2.50248,16545.3
2.5168,16550.3
2.5307,16550.5
2.5451,16555.3
2.55894,16559.2
2.57304,16560.4
2.58731,16566.5
2.60107,16567.2
2.61544,16567.9
2.62919,16573.1
2.6435,16577.1
2.65761,16579.2
2.67171,16582.6
2.68591,16586.1
2.70018,16586.5
2.71412,16591.2
2.72838,16594.6
2.7424,16594.4
2.75671,16600.1
2.77065,16602.2
2.78475,16601.6
2.79899,16606.1
2.8133,16610.5
2.82737,16611.375
2.84167,16615.1
2.85561,16618.8
2.8698,16619.7
2.88396,16623.7
2.89811,16627.6
2.91239,16626.6
2.92674,16632.4
2.94103,16633.5
2.95515,16633.4
2.96938,16639.8
2.9839,16643.4
2.99803,16643.8
3.01197,16646.5
3.02661,16650.1
3.04078,16650.5
3.05499,16652.4
3.06919,16658.3
3.08341,16657.3
3.09772,16662.8
3.11187,16665.6
3.12612,16665.5
3.14025,16668.9
3.15442,16672.4
3.16904,16672.8
3.1832,16676.3
3.19732,16680.4
3.21176,16679.2
3.22614,16684.5
3.2406,16686.4
3.25481,16685.3
3.26888,16690.2
3.28341,16694.4
3.2977,16693.8
3.31202,16697
3.32618,16699.4
3.3404,16700.8
3.3547,16705.3
3.36894,16708.5
3.38312,16708.3
3.39783,16709.375
3.41185,16714.4
3.42614,16712.6
3.44057,16718.3
3.45472,16721.2
3.46901,16720.2
3.48358,16725.2
3.49774,16728.7
3.51228,16728.2
3.52663,16730
3.54061,16734.5
3.55508,16734.3
3.56928,16736.4
3.58355,16740.8
3.59778,16741
3.61208,16743.5
3.62629,16745.9
3.64087,16747.7
3.65489,16749.9
3.66906,16753.2
3.68372,16755
3.69809,16757.2
3.71245,16760.1
3.72661,16759.9
3.74127,16762.8
3.75542,16766.4
3.77002,16765.3
3.78428,16768.2
3.79865,16772.6
3.81289,16772.1
3.82729,16774.9
3.84159,16776.4
3.85602,16778.3
3.87043,16780.2
3.88471,16782.8
3.8993,16784.9
3.91361,16786.5
3.92822,16790.4
3.94255,16789.3
3.95694,16791.1
3.97122,16794.8
3.98591,16795.3
4.00015,16799.4
4.01482,16800.4
4.02915,16801.4
4.04375,16802.5
4.05825,16804.3
4.07255,16805.4
4.08698,16806.3
4.10112,16809.4
4.11574,16812
4.13034,16815
4.14439,16818.2
4.15941,16819
4.17383,16819.1
4.18813,16821.3
4.20275,16823.2
4.21729,16825.2
4.2316,16826.7
4.24616,16828.3
4.26087,16829
4.27524,16832.9
4.28985,16834.3
4.3043,16836.875
4.31927,16837
4.33343,16837.3
4.34801,16839.2
4.36241,16841.1
4.37676,16844.3
4.39136,16847.1
4.40568,16846.3
4.42028,16848.5
4.43506,16851
4.449,16853.2
4.46392,16856.1
4.47826,16855.4
4.49296,16855.8
4.50714,16857.8
4.52199,16862.4
4.53664,16861.9
4.55122,16863.6
4.56567,16864.8
4.58009,16864
4.59458,16868.3
4.60927,16869.7
4.62377,16871.6
4.63846,16873.2
4.65274,16873.5
4.6669,16874.5
4.68191,16879.8
4.69657,16880.9
4.711,16879.5
4.72569,16882.3
4.74018,16884.9
4.75496,16884.8
4.76981,16887.8
4.78432,16889.5
4.79951,16889.5
4.81387,16890.6
4.82869,16893.5
4.84319,16892.7
4.858,16896.5
4.8729,16897.7
4.88713,16897
4.90217,16899.1
4.91691,16902.8
4.93135,16902.4
4.94629,16904.5
4.96098,16906.2
4.97574,16906.6
4.99081,16908.4
5.00558,16911.1
5.02079,16910.8
5.03571,16912.9
5.05053,16915.7
5.06537,16914.7
5.08021,16915.5
5.09535,16920
5.11049,16917.1
5.12491,16919.5
5.13985,16924.1
5.15456,16923.1
5.16967,16925.5
5.18439,16927.1
5.19953,16925.6
5.21411,16929.5
5.22939,16932.2
5.24411,16931.4
5.25894,16933
5.27426,16936.2
5.28906,16935
5.30386,16938.4
5.31902,16940.2
5.33462,16939.6
5.3494,16941.3
5.36427,16941.5
5.37947,16942.8
5.39444,16945.2
5.40957,16946.8
5.42436,16945.5
5.43939,16947.5
5.45445,16950
5.46919,16949.3
5.48438,16953.4
5.49923,16956.4
5.51438,16953.4
5.52958,16955
5.54433,16957.8
5.55958,16957.6
5.5748,16959.8
5.58961,16960.4
5.60524,16960.3
5.62018,16961.7
5.63535,16964.9
5.65015,16963.9
5.66519,16964.6
5.68036,16968.2
5.69526,16966
5.71054,16969.3
5.72572,16971.3
5.74082,16969.4
5.75577,16972.9
5.77055,16974
5.7858,16975.6
5.8012,16974.8
5.81633,16978.3
5.83143,16978.1
5.84646,16977
5.8616,16980.6
5.87646,16981.1
5.89178,16982.7
5.90721,16986.1
5.92227,16984.2
5.93731,16985
5.95245,16987
5.9674,16987.5
5.98247,16987.4
5.99771,16989.1
6.01291,16989.3
6.02794,16990.7
6.04311,16993.1
6.05811,16993.3
6.07343,16994.4
6.08846,16995.9
6.1038,16996.3
6.11861,16997.8
6.13379,16999.2
6.14911,16999.8
6.16424,16999.4
6.17929,17000.6
6.19434,17002.9
6.20961,17003.9
6.2243,17004.4
6.23931,17003.7
6.25439,17004.2
6.26951,17006.7
6.2845,17007.2
6.29898,17009.6
6.31426,17008.5
6.32938,17010.8
6.34448,17010.9
6.35955,17011.7
6.37462,17015.2
6.38968,17015.1
6.40483,17015.8
6.41966,17014.1
6.43475,17017.6
6.44987,17017.7
6.46517,17019.1
6.48048,17020.3
6.49558,17019.3
6.51114,17019.8
6.52612,17021.7
6.54129,17021.9
6.55662,17022.5
6.57197,17023
6.58738,17023.3
6.60286,17026
6.61836,17027
6.63404,17027.6
6.64975,17028
6.66557,17029.5
6.68138,17028.7
6.69745,17030.5
6.71331,17032.6
6.72921,17028.8
6.74556,17032.3
6.76155,17031.9
6.77737,17032.8
6.7938,17034.5
6.81013,17036
6.82621,17035.3
6.84261,17035.6
6.8589,17039.3
6.87528,17038.3
6.89205,17038.9
6.90847,17042
6.92505,17039.2
6.9419,17040.8
6.9588,17042.6
6.97561,17042.2
6.99244,17043.9
7.00964,17045.3
7.02643,17044.2
7.04349,17047
7.06097,17048.2
7.07795,17047.6
7.09507,17047.5
7.1121,17048.6
7.12895,17047.9
7.14616,17050.9
7.16319,17053.2
7.18052,17052.3
7.19774,17054.1
7.21466,17055.8
7.23165,17055.1
7.2487,17054.8
7.26536,17056.7
7.28234,17054.9
7.2989,17055.8
7.31531,17059.9
7.33188,17057.8
7.34792,17058.5
7.36419,17059.7
7.38044,17057.7
7.39627,17059.7
7.41227,17062.8
7.42836,17062.7
7.44432,17060.4
7.46001,17063.2
7.47589,17060.8
7.4917,17062.3
7.5077,17064.7
7.52353,17063.1
7.53951,17062.1
7.55563,17066
7.57117,17064
7.58738,17063.4
7.60356,17066.1
7.61969,17065
7.63567,17065.3
7.65157,17068.1
7.66788,17068.1
7.68416,17067
7.70019,17069.3
7.71641,17069
7.73265,17069.1
7.74865,17071
7.76484,17070.6
7.781,17073.3
7.79718,17072.8
7.81348,17074.1
7.82946,17072.7
7.84558,17074.6
7.86179,17075.8
7.87776,17073.4
7.8934,17076.3
7.90945,17075.7
7.92543,17076.8
7.94106,17078.8
7.95674,17077.6
7.97213,17078.9
7.98725,17078.8
8.00264,17079.5
8.01797,17078.5
8.03316,17080.6
8.04833,17080
8.06336,17080.4
8.0784,17083.5
8.09341,17082.1
8.10799,17081.8
8.1233,17085
8.13845,17083.6
8.15316,17082.7
8.16837,17084.4
8.18335,17086.5
8.19858,17084
8.21353,17085.9
8.22887,17086.5
8.24387,17085.1
8.25914,17087.1
8.27435,17087.5
8.28964,17085.5
8.30548,17087.2
8.3208,17087.4
8.33676,17089
8.35255,17089.6
8.36852,17089.2
8.38462,17089
8.40081,17089.9
8.41722,17090.4
8.43352,17088.3
8.45039,17090.3
8.467,17089.3
8.48402,17089.4
8.50086,17090.4
8.51807,17090.9
8.53509,17090.3
8.55198,17090.7
8.56976,17091.6
8.58704,17091.6
8.60466,17090.6
8.62232,17094.3
8.64012,17090.3
8.65801,17091.5
8.67608,17094.5
8.69398,17091.9
8.7123,17093.4
8.73053,17093
8.74926,17091.9
8.76743,17093.375
8.786,17093
8.80471,17092.4
8.82339,17092.3
8.84221,17093.8
8.86096,17092.2
8.8798,17092.6
8.89879,17092.4
8.91774,17092.5
8.93671,17092.5
8.95599,17093.2
8.97522,17092.7
8.99435,17092.6
9.01393,17093.8
9.03364,17093.375
9.05299,17091.6
9.07271,17092.4
9.09238,17091.5
9.11179,17090.9
9.1319,17093
9.15168,17091.1
9.17131,17090.2
9.19125,17091.3
9.21121,17091.6
9.23117,17090.6
9.25118,17090.7
9.2713,17091.1
9.29158,17088.9
9.31162,17089.1
9.33172,17089.4
9.35213,17088.7
9.37233,17090.2
9.39279,17088.1
9.41296,17088.6
9.43347,17089
9.45385,17088.4
9.47441,17085.9
9.49461,17086.5
9.51544,17086.7
9.53558,17084.4
9.55626,17086.9
9.57672,17085.4
9.59742,17083.3
9.61772,17083.5
9.63801,17082
9.65885,17079.8
9.67928,17083.7
9.70034,17082.4
9.72066,17080.4
9.74133,17081.9
9.76189,17081.9
9.78295,17078.7
9.80368,17077.8
9.82454,17079.6
9.84529,17075.5
9.8661,17076.6
9.88694,17075.2
9.90745,17073.1
9.92833,17073.7
9.94902,17071.7
9.97005,17071.1
9.99085,17069.2
10.0119,17069
10.0327,17067.9
10.0536,17066.2
10.0743,17066.8
10.0949,17063.1
10.1163,17065.5
10.1374,17061.9
10.1582,17059.9
10.1795,17060.9
10.2,17057.5
10.2212,17055.9
10.2422,17053.3
10.263,17053.5
10.2839,17051.4
10.3051,17050.7
10.3262,17051.9
10.3472,17047.9
10.3679,17046.2
10.3889,17044.6
10.4099,17043.6
10.4306,17042.2
10.452,17040.3
10.473,17035.1
10.4939,17035.5
10.515,17033.5
10.5362,17031.4
10.5574,17028
10.5786,17027.2
10.5992,17024.4
10.6204,17022.7
10.6415,17021.5
10.6626,17018.1
10.6838,17016.3
10.7048,17012.3
10.7256,17011.1
10.7468,17007.8
10.768,17006.8
10.7891,17002.9
10.81,16998.9
10.831,16997.5
10.8519,16994.1
10.8734,16992.3
10.8944,16987.3
10.9158,16984.7
10.9368,16981.3
10.9579,16977.2
10.979,16974.3
11.0002,16970.7
11.0217,16966.8
11.0428,16962.7
11.0637,16960.2
11.0848,16957.5
11.1057,16953.2
11.1268,16947.5
11.1481,16944.1
11.1694,16939.9
11.1902,16936.4
11.2114,16931.4
11.2326,16927.8
11.2539,16922.8
11.2752,16916.8
11.2962,16916.7
11.3173,16908.1
11.3385,16903.8
11.3601,16897.7
11.3811,16892.1
11.4023,16886.375
11.4237,16881
11.4447,16877
11.4655,16870.4
11.487,16866.1
11.5083,16860.1
11.5294,16851.2
11.5508,16847.5
11.5718,16839.6
11.5931,16833.3
11.6146,16828
11.6359,16820.5
11.6572,16814
11.6785,16808
11.6997,16800.8
11.7212,16790.4
11.7425,16782.7
11.7638,16775.4
11.7851,16765.1
11.8064,16759.2
11.8277,16750.1
11.8492,16739.8
11.8705,16733.4
11.8915,16722.8
11.9128,16713.2
11.9343,16703.8
11.9554,16694.4
11.9769,16682
11.9985,16672.6
12.0199,16662.3
12.0414,16651.1
12.0632,16642
12.0844,16627.3
12.1064,16613.8
12.1277,16603.2
12.1493,16589.8
12.1711,16577.2
12.1928,16562.3
12.214,16548.7
12.2355,16531.6
12.257,16518.3
12.2787,16504.9
12.3005,16485.6
12.322,16469.9
12.3437,16452.9
12.3652,16435.7
12.3869,16418.8
12.4088,16397.4
12.4307,16375.1
12.4521,16353.9
12.4741,16332.125
12.4957,16307.5
12.5179,16279.3
12.5402,16249.4
12.5622,16216.5
12.5843,16189.1
12.6065,16159.8
12.6286,16124.4
12.6502,16094.2
12.6724,16057.3
12.6949,16012.1
12.7174,15958.7
12.742,15817.8
13.1338,5709.39
16.5158,-2835.71