File: data/PrimaryData/Brass/Tensile_006.csv
Displacement (mm),Load (N)
mm,lbf
0.00015398,-0.524574
0.000101682,-0.634197
0.000526934,-0.356341
0.000242821,-0.888649
-0.00015003,-0.939431
0.000408874,-0.492647
0.00010931,-0.642272
0.000217904,-0.396221
0.000390915,-0.375026
4.60626e-05,-0.523641
0.000670671,-0.166714
-7.43433e-06,-0.415722
0.000595927,0.147692
-6.94254e-06,0.0230171
0.00037149,0.475806
0.000486478,0.478328
0.000156083,0.413635
0.000368671,0.89941
0.000538255,1.58995
0.000532546,1.52986
2.58204e-05,1.31274
0.000465822,2.12549
0.000949869,2.42596
0.000449203,2.24321
0.000850474,3.29268
0.000188251,2.94303
0.000588165,3.79296
0.000600668,4.21807
0.000406556,4.25033
0.000487952,4.67885
0.000526471,5.40667
0.000629822,6.23851
0.000959034,7.01978
0.00142808,7.48039
0.00115409,8.37532
0.00127946,9.15227
0.000602457,9.47397
0.00070499,10.3318
0.00102533,11.9145
0.000888299,12.2276
0.000525801,12.8266
0.00136834,14.4704
0.00135208,15.329
0.000898809,16.1723
0.00118566,17.6197
0.00107995,18.4776
0.00156268,20.2517
0.0017546,21.4527
0.00156712,23.316
0.00165039,24.5099
0.00157613,25.4971
0.00154981,27.0138
0.00193226,29.1147
0.00161887,30.0909
0.00242159,32.2964
0.00171414,33.5569
0.0023557,35.8791
0.00166615,37.6746
0.00199272,39.4511
0.00220259,42.0348
0.00250674,44.5896
0.00236585,46.3853
0.0028843,49.3955
0.00301172,51.2442
0.00268826,53.7619
0.00318634,56.2961
0.00315254,58.6548
0.00296808,60.9157
0.00341273,63.6001
0.00324634,66.0447
0.00363916,68.8966
0.00394553,71.6598
0.00399634,74.4042
0.0044867,77.7002
0.00456308,80.8257
0.00453531,83.8821
0.00455788,86.8049
0.0045897,89.6214
0.00451879,92.8558
0.00516176,96.4216
0.0052454,99.0904
0.00511837,101.956
0.00507322,104.98
0.00576828,108.498
0.00565792,111.742
0.00555764,115.3
0.00615656,119.674
0.00614003,123.006
0.00645641,126.609
0.00668898,130.255
0.00639896,133.339
0.00677467,137.283
0.00741926,140.542
0.00745045,144.421
0.00736004,148.043
0.00744361,151.86
0.00765371,156.675
0.00805338,160.885
0.00777607,164.552
0.00829501,168.788
0.008698,172.676
0.00845871,176.218
0.00884705,180.192
0.00926177,184.338
0.00895381,188.747
0.00984975,193.652
0.00939289,197.671
0.0100894,202.684
0.00996646,206.24
0.0105973,210.905
0.0102315,214.506
0.0105765,219.276
0.0107131,224.043
0.010798,228.852
0.0114681,234.312
0.0120522,239.351
0.0120886,243.498
0.0117261,247.675
0.011887,252.091
0.0121908,256.732
0.0128033,262.248
0.0131341,266.996
0.0131379,271.579
0.0133669,276.503
0.013853,280.999
0.0134406,285.102
0.0135403,290.14
0.0140575,295.039
0.0139637,300.376
0.0150159,305.93
0.015276,310.575
0.0153169,314.735
0.0153431,318.758
0.0154581,323.158
0.0154225,327.612
0.0156829,332.047
0.0159819,335.357
0.0160414,338.077
0.0162282,339.991
0.0162132,341.57
0.0167299,342.202
0.0167899,340.257
0.0165565,336.351
0.0160063,332.452
0.0162279,330.375
0.0156052,328.424
0.0159963,328.559
0.0159362,329.21
0.0162582,329.959
0.015534,329.896
0.0154944,330.742
0.0161199,332.034
0.0163998,334.21
0.0165815,336.488
0.0166558,337.916
0.0162491,338.696
0.0164557,340.731
0.0164128,342.05
0.0171656,344.588
0.0162187,345.835
0.0170778,347.488
0.0174844,349.217
0.0174953,350.786
0.0165884,352.506
0.0167677,353.974
0.0168311,355.513
0.017057,357.117
0.0172566,359.402
0.0175747,361.711
0.0176799,363.447
0.0179166,365.12
0.017558,366.392
0.018091,368.937
0.0180454,370.917
0.0179478,372.833
0.0179958,374.762
0.0185948,377.235
0.0185173,379.265
0.0181872,381.644
0.0185282,382.758
0.0178629,381.821
0.0181142,382.272
0.0181162,384.263
0.0188074,385.94
0.0189653,387.069
0.0187986,388.048
0.0189232,390.462
0.0194591,393.073
0.019598,394.478
0.0196807,396.045
0.0197817,398.475
0.0196744,400.8
0.019084,401.745
0.0199413,404.209
0.0191263,405.887
0.020336,409.368
0.0195949,410.542
0.0198678,412.445
0.0205403,415.317
0.0203445,417.405
0.0201469,419.532
0.0207845,421.39
0.0201809,423.497
0.0205578,425.85
0.0210847,428.747
0.0208428,429.935
0.0204756,432.254
0.0213389,435.28
0.0214227,437.048
0.0209229,438.371
0.0216119,441.604
0.0218568,444.098
0.0211661,445.181
0.0214605,447.423
0.0218069,450.901
0.0216952,453.273
0.0217285,454.722
0.0218249,457.708
0.0225216,460.423
0.0221195,461.988
0.0223401,464.197
0.0229742,468.303
0.0224867,469.614
0.0228544,471.834
0.0230899,475.023
0.0230553,477.651
0.023031,479.092
0.0232625,482.304
0.0235861,485.174
0.02361,487.374
0.0234609,489.129
0.0240391,493.244
0.023598,494.391
0.0240671,496.471
0.0243254,500.327
0.0242374,502.693
0.0244617,505.187
0.0246254,508.828
0.0246909,510.902
0.0244142,512.969
0.0247303,515.845
0.0255675,519.511
0.0255315,521.972
0.0256805,524.66
0.0253475,527.78
0.0253459,529.722
0.0252674,532.389
0.025764,536.102
0.0263873,538.665
0.0264815,541.989
0.0263941,545.526
0.0263231,546.894
0.0262435,550.717
0.0271478,554.218
0.0263296,555.906
0.0277243,560.555
0.0270386,563.386
0.0276567,565.549
0.0271225,568.79
0.028017,572.303
0.0274894,574.1
0.0283286,578.709
0.0279973,581.39
0.0281855,584.15
0.0284099,588.423
0.028741,591.063
0.0288162,594.391
0.0290004,597.774
0.0297149,600.788
0.0289039,604.451
0.0291222,607.177
0.029395,610.018
0.0298403,614.11
0.0299444,616.847
0.0294238,619.764
0.0303505,624.231
0.0303466,626.907
0.0303256,630.307
0.0309893,634.295
0.0303408,636.358
0.0316097,641.596
0.0305388,642.889
0.0318151,647.885
0.0312927,649.921
0.0312832,653.236
0.0325069,658.384
0.0314162,660.282
0.032426,665.118
0.0328779,668.297
0.0329296,671.23
0.0323938,674.782
0.0328417,678.195
0.0337155,683.133
0.0332785,685.094
0.0341721,689.784
0.0334298,692.999
0.0336801,696.032
0.0338868,700.508
0.035116,703.779
0.0344145,707.614
0.0345021,711.317
0.0350322,715.398
0.0349043,718.932
0.0355392,723.086
0.0354626,726.707
0.0360789,730.36
0.0357682,734.539
0.036362,738.434
0.0368379,743.08
0.0363705,745.611
0.0367644,750.052
0.0365603,753.466
0.0373319,758.04
0.0380323,762.863
0.0371538,765.047
0.0384374,770.681
0.0378105,773.345
0.0389024,778.949
0.038129,781.101
0.0389696,786.192
0.0386306,788.997
0.0388635,793.916
0.0397908,798.529
0.0398704,802.324
0.0396611,805.433
0.0397483,809.864
0.0405036,814.785
0.0403279,818.079
0.040445,822.519
0.0411309,826.782
0.0407841,830.792
0.041904,835.116
0.041674,839.346
0.0417022,842.816
0.0418413,847.766
0.0425382,852.387
0.0431053,857.123
0.0429229,860.727
0.0429624,864.889
0.042729,869.007
0.0432625,873.708
0.0435254,877.735
0.0439231,882.839
0.0441974,887.267
0.0447476,891.771
0.0445426,895.763
0.0445864,900.507
0.045663,912.086
0.0457885,913.771
0.0454881,916.64
0.0455352,920.022
0.0456656,924.596
0.0460676,929.15
0.04652,933.59
0.047328,938.832
0.0473989,943.432
0.047533,948.413
0.0473101,952.031
0.0476508,957.02
0.0479415,961.107
0.0482031,966.708
0.0486462,970.789
0.0490418,975.462
0.0489045,980.162
0.0493946,985.135
0.0501863,990.325
0.0502359,995.22
0.0500225,999.698
0.0507262,1004.76
0.050546,1009.46
0.0508135,1013.91
0.05122,1019.09
0.0519804,1025.14
0.051474,1028.22
0.0527377,1034.92
0.0528637,1039.03
0.0522961,1044.07
0.0529539,1048.81
0.0539612,1054.38
0.0536206,1059.2
0.0535673,1063.75
0.0546036,1069.36
0.0540219,1073.33
0.0552178,1079.08
0.0547687,1083.83
0.0560526,1089.04
0.055785,1094.41
0.0555439,1098.56
0.0568916,1104.2
0.0562158,1109.19
0.0569949,1113.88
0.0574145,1119.64
0.0574985,1123.98
0.0584575,1130.12
0.0581031,1135.27
0.05807,1139.72
0.0591295,1145.77
0.0585357,1151.16
0.059062,1155.86
0.0597925,1162.03
0.0606931,1167.66
0.0599962,1172.01
0.0614003,1178.89
0.0611124,1183.07
0.0618338,1189.22
0.0619212,1195.03
0.0624779,1199.64
0.0621462,1205.03
0.062466,1210.89
0.0632315,1216.26
0.0632517,1221.77
0.0639852,1227.74
0.0643652,1233.35
0.0642222,1238.58
0.0649784,1244.37
0.0656472,1249.82
0.0654972,1254.82
0.0656865,1260.26
0.0666934,1266.05
0.0663747,1271.35
0.0672468,1277.97
0.0677511,1283.27
0.0672967,1288.2
0.0686485,1295.03
0.0681486,1299.28
0.0689557,1305.97
0.0698386,1312.05
0.0699828,1317.32
0.0694466,1322.59
0.070558,1329.44
0.0705942,1334.54
0.0708961,1339.83
0.071802,1346.49
0.0713384,1352.14
0.072505,1358.32
0.0722576,1363.77
0.0737988,1370.94
0.0730683,1376.15
0.0740878,1382.03
0.0747002,1388.5
0.0744263,1393.84
0.0752955,1400.11
0.0758961,1405.82
0.0761658,1412.45
0.0760675,1417.72
0.0765691,1423.12
0.0775775,1431.01
0.077207,1436.45
0.0785155,1442.49
0.078627,1448.31
0.0787248,1454.48
0.0798048,1461.59
0.0794524,1466.6
0.0806655,1473.77
0.0799875,1479.18
0.0818596,1486.55
0.0813939,1491.41
0.0817608,1497.33
0.0820926,1504.08
0.0830438,1510.8
0.0831465,1516.15
0.0836285,1522.58
0.0844064,1529.26
0.0849521,1536.11
0.0853525,1541.67
0.0858942,1547.34
0.0861737,1554.15
0.0873458,1561.33
0.0871991,1567.48
0.0874671,1573.34
0.0879716,1579.21
0.0888484,1585.54
0.089093,1592.55
0.0896739,1598.72
0.0905316,1605.59
0.0909909,1612.12
0.0911081,1618.35
0.0917567,1624.97
0.0927167,1631.3
0.0929744,1637.41
0.0935573,1644
0.09383,1650.53
0.0942429,1657.47
0.0949502,1663.98
0.095854,1670.29
0.0961229,1676.28
0.0966131,1683.3
0.0970042,1689.86
0.097666,1696.54
0.0982453,1703.1
0.0990089,1708.98
0.0993003,1715.35
0.0999153,1722.56
0.100576,1728.86
0.101045,1735.58
0.101763,1742.45
0.102607,1748.69
0.103046,1755.17
0.103904,1762.78
0.104326,1769.53
0.104364,1775.66
0.1054,1782.12
0.106689,1789.31
0.106841,1795.9
0.107062,1802.3
0.108212,1809.56
0.10869,1816.58
0.108719,1823.13
0.110055,1829.76
0.110718,1836.41
0.111271,1843.2
0.111962,1849.64
0.11243,1856.81
0.113021,1863.38
0.113129,1869.94
0.114217,1877.01
0.115825,1884.55
0.115711,1890.88
0.116559,1896.85
0.117473,1903.89
0.11848,1911.08
0.118963,1918.39
0.119339,1924.91
0.119633,1931.74
0.121173,1938.98
0.122026,1945.68
0.12222,1951.92
0.123055,1958.62
0.123997,1966.13
0.124803,1972.49
0.125016,1978.95
0.126807,1986.07
0.126511,1992.26
0.127898,2000.12
0.127886,2006.41
0.129683,2014.07
0.129752,2019.92
0.13065,2026.88
0.132024,2034.38
0.13276,2040.88
0.132927,2047.64
0.134286,2054.23
0.135252,2061.68
0.136017,2068.42
0.136274,2074.88
0.137387,2082.03
0.138252,2088.89
0.139617,2096.61
0.14039,2103.2
0.141573,2110.43
0.142474,2117.39
0.142961,2124.14
0.143709,2130.67
0.14493,2138.05
0.14584,2144.71
0.146811,2151.38
0.148014,2158.56
0.148966,2165.01
0.149633,2171.87
0.150402,2179.22
0.151781,2185.94
0.152935,2192.96
0.153432,2199.17
0.154659,2206.15
0.15593,2213.34
0.156884,2220.11
0.157848,2226.77
0.158781,2232.99
0.159689,2240.09
0.160942,2247.14
0.161951,2254.21
0.163067,2260.47
0.163983,2266.97
0.165396,2273.71
0.167218,2281.31
0.167972,2288.15
0.169033,2294.93
0.16991,2300.97
0.171244,2307.74
0.1729,2315.13
0.173482,2321.51
0.175012,2328.3
0.176337,2335.06
0.177009,2341.35
0.178044,2347.7
0.179664,2354.48
0.181004,2361
0.182844,2368.43
0.184046,2375.18
0.184899,2380.82
0.186792,2387.96
0.187756,2394.44
0.188597,2400.2
0.19109,2407.43
0.191991,2414.43
0.192752,2419.79
0.194778,2426.68
0.196501,2433.71
0.197874,2440.28
0.199357,2446.35
0.202301,2474.03
0.20969,2503.77
0.216015,2525.4
0.222243,2545.85
0.227508,2564.48
0.23354,2583.26
0.239072,2600.33
0.244744,2616.64
0.250821,2633.06
0.256772,2649.01
0.262749,2664.14
0.269538,2679.47
0.275728,2693.04
0.282948,2707.77
0.28902,2720.84
0.296467,2733.99
0.303857,2746.85
0.311482,2758.45
0.318991,2769.69
0.326167,2780.7
0.334259,2791.44
0.342657,2801.29
0.35124,2811.12
0.359555,2820.09
0.368363,2828.81
0.377597,2837.88
0.386429,2845.5
0.396187,2853.01
0.405329,2860.19
0.415603,2867.23
0.424937,2873.17
0.435278,2879.82
0.445195,2885.38
0.456006,2891.5
0.466115,2896.69
0.476914,2901.87
0.487845,2906.6
0.498277,2911.17
0.509824,2916.09
0.520996,2919.61
0.532058,2923.78
0.543963,2927.99
0.55571,2931.42
0.567057,2935.28
0.578788,2938.36
0.591195,2941.95
0.603052,2944.66
0.615471,2948.51
0.62725,2950.3
0.640083,2954.1
0.652354,2956.86
0.664718,2959.08
0.677267,2962.13
0.689801,2964.73
0.702343,2966.6
0.71479,2969.13
0.727756,2971.64
0.740788,2973.6
0.753374,2975.79
0.766574,2978.11
0.779307,2979.52
0.792635,2982.63
0.805599,2984.77
0.818699,2985.88
0.832342,2988.38
0.845362,2990.06
0.858369,2991.5
0.871614,2993.92
0.885758,2996.2
0.8982,2996.7
0.911886,2999.41
0.924588,3000.56
0.938224,3002.38
0.951863,3004.56
0.96539,3006.2
0.978706,3006.92
0.992085,3008.76
1.00604,3010.85
1.01911,3011.73
1.03247,3013.86
1.04628,3014.87
1.05965,3016.11
1.07352,3017.99
1.08703,3019.66
1.10071,3020.93
1.11471,3022.46
1.12808,3023.91
1.14157,3025
1.15521,3026.23
1.16902,3028.2
1.18277,3029.16
1.19625,3030.63
1.20959,3031.39
1.22365,3032.78
1.23752,3034.84
1.25096,3035.7
1.27215,3037.42
1.29339,3038.25
1.31448,3039.45
1.33563,3040.99
1.35682,3042.42
1.37797,3043.29
1.39911,3044.02
1.42035,3045.33
1.44149,3046.82
1.46259,3047.4
1.48383,3049.26
1.50497,3050.13
1.52617,3051.31
1.54736,3052.41
1.5685,3053.41
1.5896,3054.88
1.61079,3055.29
1.63198,3056.84
1.65313,3057.49
1.67432,3058.88
1.69546,3059.79
1.71661,3060.72
1.73785,3062.09
1.75899,3063.29
1.78014,3064.34
1.80133,3065.36
1.82247,3065.93
1.84362,3067.69
1.86486,3068.04
1.886,3069.28
1.90715,3069.7
1.92829,3070.89
1.94948,3071.79
1.97058,3073.15
1.99182,3073.74
2.01292,3074.69
2.03406,3075.56
2.0553,3077.35
2.0764,3077.98
2.09763,3079.1
2.11883,3079.94
2.13997,3080.84
2.16112,3081.56
2.18231,3082.58
2.20345,3082.67
2.22455,3083.99
2.24579,3085.49
2.26693,3085.62
2.28812,3086.59
2.30932,3087.27
2.33046,3087.98
2.35161,3089.21
2.37275,3090.14
2.39389,3091.24
2.41509,3091.98
2.43632,3092.85
2.45742,3093.24
2.47861,3094.58
2.49976,3094.97
2.52095,3095
2.54209,3096.95
2.56333,3097.62
2.58443,3097.53
2.60558,3099.11
2.62677,3100.16
2.64791,3099.94
2.6691,3101.36
2.69029,3101.82
2.71144,3102.98
2.73258,3104.22
2.75378,3104.43
2.77497,3104.47
2.79611,3105.45
2.8173,3106.99
2.8384,3107
2.85959,3107.94
2.88078,3108.35
2.90193,3108.96
2.92307,3110.66
2.94431,3110.93
2.96536,3111.15
2.9866,3112.6
3.00779,3113.34
3.02894,3114
3.05013,3115.2
3.07127,3115.86
3.09242,3115.73
3.11361,3116.6
3.13475,3117.17
3.1559,3117.99
3.17704,3119.31
3.19828,3119.7
3.21938,3119.34
3.24067,3120.79
3.26176,3122.01
3.28296,3121.97
3.3041,3122.57
3.32529,3124.2
3.34644,3123.91
3.36758,3124.99
3.38877,3125.83
3.40992,3125.71
3.43111,3127.08
3.45225,3127.05
3.4734,3127.29
3.49464,3128.48
3.51578,3129.19
3.53693,3129.36
3.55812,3130.16
3.57926,3131.63
3.60036,3131.31
3.6216,3132.49
3.64274,3133.98
3.66393,3132.81
3.68508,3134.41
3.70632,3134.39
3.72732,3135.14
3.74861,3135.42
3.76975,3137.49
3.79094,3136.33
3.81213,3137.31
3.83328,3138.15
3.85438,3138.53
3.87562,3139.21
3.89676,3139.9
3.91786,3139.83
3.9391,3141.45
3.96029,3141.98
3.98134,3141.65
4.00267,3142.31
4.02377,3143.44
4.04491,3143.56
4.06606,3143.72
4.0873,3145.09
4.10835,3145.07
4.12959,3146.28
4.15078,3146.68
4.17188,3146.66
4.19307,3147.71
4.21426,3148.83
4.23536,3148.78
4.25664,3148.68
4.27774,3150
4.29884,3149.95
4.32008,3150.62
4.34127,3151.55
4.36232,3151.55
4.38365,3152.61
4.40475,3152.91
4.42589,3153.16
4.44708,3154.68
4.46832,3154.25
4.48937,3154.39
4.51066,3155.05
4.53176,3156.05
4.55286,3156.23
4.57414,3157
4.59533,3157.78
4.61643,3157.91
4.63762,3157.89
4.65877,3159.76
4.67986,3159.47
4.7011,3159.41
4.72229,3160.78
4.74334,3160.55
4.76463,3161.5
4.78577,3162.6
4.80692,3161.91
4.82811,3162.53
4.8493,3162.99
4.87035,3163.74
4.89164,3164.06
4.91274,3164.66
4.93393,3164.87
4.95512,3165.35
4.97631,3166.47
4.99736,3166.57
5.01865,3166.94
5.03979,3166.99
5.06089,3167.93
5.08213,3168
5.10327,3168.76
5.12432,3169.09
5.14565,3169.88
5.1668,3170.21
5.18794,3170.27
5.20904,3171.03
5.23028,3171.24
5.25133,3172.03
5.27257,3172.39
5.29372,3172.33
5.31486,3173.43
5.3361,3173.74
5.35724,3174.2
5.37834,3174.42
5.39963,3174.48
5.42072,3175.75
5.44187,3175.44
5.46306,3176.31
5.48425,3176.49
5.5053,3176.58
5.52659,3177.98
5.54773,3177.72
5.56883,3178.25
5.59002,3178.39
5.61126,3179.44
5.63236,3179.65
5.6536,3179.51
5.67469,3180.13
5.69584,3180.36
5.71708,3181.3
5.73827,3181.1
5.75937,3181.6
5.78056,3182.58
5.80175,3182.51
5.82285,3183.04
5.84409,3183.86
5.86523,3183.53
5.88633,3184.11
5.90757,3184.67
5.92871,3184.56
5.9499,3185.76
5.97105,3185.5
5.99229,3186.04
6.01338,3186.2
6.03458,3187.03
6.05577,3186.8
6.07691,3187.23
6.09815,3188.09
6.11925,3187.58
6.14044,3189.12
6.16163,3188.69
6.18278,3188.77
6.20392,3189.73
6.22506,3190.05
6.24621,3190.86
6.26736,3190.59
6.28859,3191.57
6.30974,3190.92
6.33093,3191.99
6.35207,3192.09
6.37322,3192.51
6.39436,3192.68
6.4156,3193.16
6.4367,3193.51
6.45789,3193.71
6.47908,3194.71
6.50023,3194.52
6.52142,3194.85
6.54261,3195.56
6.56376,3195.73
6.58485,3195.74
6.60604,3197.11
6.62719,3196.03
6.64833,3196.7
6.66957,3197.51
6.69067,3197.36
6.71191,3198.27
6.73305,3198.17
6.7542,3198.5
6.77539,3198.78
6.79658,3199.24
6.81768,3199.65
6.83892,3199.73
6.86006,3200.35
6.88121,3199.55
6.9024,3200.78
6.92359,3201.54
6.94469,3201.4
6.96583,3202
6.98707,3202
7.00817,3202.1
7.02936,3202.59
7.0505,3203.23
7.07165,3203.44
7.09289,3203.72
7.11403,3204.03
7.13522,3204.01
7.15637,3204.3
7.17761,3204.91
7.1987,3204.92
7.2199,3204.68
7.24109,3206.13
7.26214,3205.32
7.28342,3205.84
7.30461,3206.62
7.32576,3206.99
7.3469,3207.21
7.3681,3207.77
7.38919,3207.11
7.41039,3207.58
7.43158,3208.54
7.45267,3207.98
7.47391,3208.66
7.49506,3209.59
7.5162,3209.72
7.53744,3209.17
7.55863,3209.64
7.57968,3210.49
7.60088,3210.16
7.62207,3210.54
7.64321,3210.72
7.66445,3211.16
7.68564,3211.49
7.70674,3212.03
7.72788,3211.87
7.74912,3212.49
7.77017,3212.79
7.79141,3211.94
7.81256,3213.29
7.83365,3213.6
7.85489,3213.09
7.87608,3214.52
7.89723,3214.41
7.91842,3213.74
7.93961,3214.71
7.96066,3214.74
7.9819,3214.73
8.00314,3215.07
8.02419,3215.41
8.04543,3215.84
8.06662,3216.46
8.08772,3216.51
8.10891,3216.07
8.13015,3217.1
8.1512,3216.34
8.17239,3217.53
8.19354,3217.57
8.21468,3217.85
8.23592,3217.72
8.25711,3218.13
8.27821,3218.3
8.2994,3218.98
8.32059,3218.57
8.34169,3219.02
8.36293,3218.78
8.38407,3219.75
8.40517,3219.8
8.42645,3219.63
8.4476,3220.12
8.46874,3220.23
8.48989,3220.28
8.51113,3220.45
8.53213,3220.89
8.55337,3221.6
8.57451,3221.31
8.59566,3221.38
8.61685,3221.65
8.63804,3221.87
8.65919,3222.03
8.68038,3222.14
8.70157,3222.79
8.72267,3222.2
8.74386,3222.85
8.76505,3222.91
8.7861,3223.47
8.80739,3223.66
8.82858,3223.41
8.84968,3224.03
8.87087,3224.17
8.89206,3224.14
8.91316,3224.51
8.9344,3224.57
8.95549,3224.59
8.97664,3224.82
8.99783,3225.75
9.01907,3225.04
9.04021,3225.23
9.0614,3225.64
9.08255,3225.48
9.10365,3226.34
9.12489,3226.96
9.14603,3227.16
9.16713,3227.26
9.18841,3227.46
9.20951,3227.19
9.2307,3227.25
9.25185,3227.93
9.27309,3227.71
9.29414,3227.73
9.31538,3228.5
9.33652,3227.77
9.35766,3228.52
9.37886,3228.7
9.40005,3228.46
9.42119,3229.03
9.44243,3229.78
9.46358,3229.57
9.48472,3229.35
9.50586,3230.37
9.52706,3230.34
9.54815,3230.01
9.56939,3230.5
9.59054,3229.55
9.61173,3230.05
9.63283,3230.92
9.65406,3230.54
9.67512,3230.65
9.6964,3231.37
9.7175,3230.91
9.73869,3230.99
9.75984,3231.67
9.78103,3231.69
9.80217,3231.66
9.82341,3231.91
9.84455,3231.46
9.86565,3232.33
9.88689,3232.41
9.90808,3232.53
9.92918,3232.82
9.95042,3233.3
9.97152,3232.98
9.99271,3232.95
10.0139,3233.68
10.035,3233.52
10.0561,3233.86
10.0774,3234.11
10.0985,3234.18
10.1197,3233.75
10.1409,3234.51
10.1621,3233.89
10.1832,3234.86
10.2044,3234.39
10.2255,3234.61
10.2467,3234.86
10.2679,3235.32
10.2891,3234.63
10.3102,3234.92
10.3314,3235.3
10.3525,3235.27
10.3737,3235.41
10.3949,3236.42
10.4161,3235.81
10.4371,3235.87
10.4584,3236.19
10.4795,3236.53
10.5007,3236.25
10.5219,3236.05
10.543,3236.32
10.5642,3235.84
10.5855,3236.74
10.6066,3236.55
10.6277,3235.97
10.6489,3237.2
10.67,3236.98
10.6912,3236.8
10.7124,3237.2
10.7335,3236.89
10.7547,3237.06
10.7759,3237.3
10.797,3237.93
10.8182,3237.31
10.8394,3237.58
10.8605,3237.2
10.8817,3237.89
10.9029,3237.9
10.924,3237.71
10.9452,3238
10.9664,3237.57
10.9875,3238.48
11.0087,3238.1
11.0299,3238.33
11.051,3238.48
11.0722,3238.12
11.0934,3238.64
11.1145,3238.62
11.1357,3239.12
11.1569,3239.42
11.1781,3238.99
11.1992,3239.14
11.2204,3239.1
11.2415,3239.93
11.2627,3239.5
11.2839,3238.96
11.305,3239.65
11.3262,3239.4
11.3474,3239.53
11.3686,3240.59
11.3897,3239.64
11.4109,3239.82
11.4321,3240.51
11.4532,3240.03
11.4744,3240.21
11.4956,3240.66
11.5167,3240.3
11.538,3240.91
11.5591,3240.8
11.5802,3240.62
11.6014,3240.47
11.6225,3241.06
11.6437,3240.11
11.6649,3240.68
11.686,3240.55
11.7072,3241.04
11.7284,3241.61
11.7496,3241.15
11.7707,3240.82
11.7919,3241.03
11.813,3240.84
11.8342,3241.86
11.8554,3241.42
11.8765,3241.78
11.8977,3241.31
11.9188,3241.11
11.94,3241.89
11.9611,3241.51
11.9824,3241.47
12.0035,3241.87
12.0247,3241.69
12.0459,3241.45
12.067,3241.93
12.0881,3241.38
12.1094,3241.05
12.1305,3242.01
12.1516,3240.94
12.1729,3241.13
12.194,3241.57
12.2151,3241.86
12.2363,3241.51
12.2575,3241.28
12.2786,3241.61
12.2998,3241.23
12.321,3241.43
12.3422,3241.6
12.3633,3241.21
12.3845,3241.23
12.4056,3241.35
12.4268,3240.57
12.448,3241.29
12.4692,3240.52
12.4903,3240.81
12.5115,3240.8
12.5326,3241.42
12.5539,3240.42
12.575,3240.7
12.5962,3241.05
12.6173,3239.81
12.6385,3241.03
12.6597,3240.74
12.6808,3240.25
12.702,3240.29
12.7232,3240.02
12.7443,3240
12.7655,3239.57
12.7867,3239.78
12.8079,3239.64
12.829,3239.37
12.8502,3239.87
12.8714,3239.16
12.8926,3239.1
12.9137,3239.19
12.9349,3238.83
12.956,3238.83
12.9772,3238.56
12.9983,3238.62
13.0196,3238.41
13.0407,3238.25
13.0619,3238
13.0831,3237.93
13.1042,3237.93
13.1254,3237.19
13.1465,3237.57
13.1677,3237.52
13.1889,3237.29
13.2101,3236.62
13.2312,3236.34
13.2524,3236.5
13.2736,3235.7
13.2947,3236.09
13.3159,3235.87
13.3371,3235.6
13.3582,3235.22
13.3794,3235.15
13.4006,3234.6
13.4217,3234.56
13.4429,3234.14
13.4641,3233.83
13.4852,3233.59
13.5063,3233.72
13.5276,3233
13.5487,3232.46
13.5699,3232.42
13.5911,3231.2
13.6122,3231.58
13.6333,3230.76
13.6546,3230.61
13.6757,3230.46
13.6969,3229.59
13.7181,3229.66
13.7393,3229.31
13.7604,3229.24
13.7816,3227.9
13.8027,3227.61
13.8238,3227.12
13.8451,3226.85
13.8662,3226.17
13.8874,3225.57
13.9085,3224.87
13.9297,3224.47
13.9509,3223.61
13.972,3223.29
13.9932,3222.64
14.0144,3222.23
14.0356,3221.58
14.0567,3220.87
14.0779,3221.23
14.099,3219.67
14.1203,3218.99
14.1414,3218.57
14.1626,3217.25
14.1837,3217.08
14.2049,3216.22
14.226,3215.71
14.2473,3214.3
14.2684,3213.76
14.2896,3213.36
14.3108,3212.41
14.3319,3211.38
14.3531,3210.1
14.3742,3209.42
14.3954,3208.85
14.4166,3207.66
14.4377,3207.09
14.4589,3205.77
14.4801,3204.62
14.5013,3203.6
14.5224,3202.65
14.5436,3202.26
14.5647,3199.94
14.5859,3199.86
14.6071,3197.91
14.6283,3197.3
14.6494,3196.41
14.6706,3194.74
14.6917,3193.67
14.7129,3192.33
14.734,3191.19
14.7552,3190.02
14.7764,3188.56
14.7976,3187.67
14.8188,3185.29
14.8399,3185.3
14.8611,3183.12
14.8823,3181.14
14.9034,3180.53
14.9246,3178.05
14.9457,3176.71
14.9669,3175.03
14.9881,3173.99
15.0092,3171.84
15.0304,3170.35
15.0516,3168.19
15.0728,3166.34
15.0939,3164.43
15.115,3163.05
15.1363,3160.62
15.1574,3159.35
15.1786,3156.35
15.1997,3154.6
15.221,3153.16
15.2421,3150.65
15.2633,3147.69
15.2844,3145.32
15.3056,3143.57
15.3267,3140.9
15.3479,3138.5
15.3691,3135.91
15.3903,3132.84
15.4114,3131.24
15.4326,3128.49
15.4538,3124.64
15.4749,3122.1
15.496,3119.19
15.5173,3115.88
15.5384,3112.95
15.5596,3110.07
15.5808,3105.53
15.602,3102.91
15.6231,3100.08
15.6443,3095.24
15.6654,3092.39
15.6866,3088.61
15.7078,3084.7
15.729,3080.36
15.7502,3075.85
15.7713,3071.34
15.7925,3067.56
15.8136,3063.13
15.8348,3057.38
15.856,3053.05
15.8771,3048.24
15.8983,3042.33
15.9195,3037.54
15.9407,3031.6
15.9618,3025.38
15.9831,3019.98
16.0042,3013.28
16.0254,3007.03
16.0466,3000.19
16.0677,2992.67
16.0889,2985.66
16.11,2978.05
16.1312,2969.61
16.1524,2961.07
16.1736,2952.53
16.1948,2943.85
16.2159,2934.15
16.2371,2923.8
16.2582,2912.91
16.2794,2902.07
16.3007,2889.2
16.3218,2876.42
16.343,2861.4
16.3642,2844.98
16.3853,2824.38
16.4065,2794.81
16.4277,2756.79
16.4489,2693.45
16.4656,-1062.16