File: data/PrimaryData/Brass/Tensile_003.csv
Displacement (mm),Load (N)
0.000673167,0.798101
0.000500287,1.22663
0.000361639,1.60719
0.00040982,1.25902
0.000663855,0.74981
0.00057337,1.02279
0.000803187,1.9724
0.000718178,2.49431
0.000465851,2.17362
0.000459291,2.81133
0.000505663,2.19568
0.000506193,4.23351
0.000673911,6.05539
0.000500383,5.6141
0.000594856,5.02648
0.000604557,5.77777
0.000542042,6.276
0.0006712,7.88805
0.00047893,8.70245
0.000637325,9.24332
0.000583392,10.511
0.00102565,12.1832
0.000779224,11.9258
0.000714755,13.8207
0.000703939,14.6737
0.000804856,16.4075
0.000879612,19.1689
0.00104852,19.3227
0.000855714,21.6092
0.000703897,22.6494
0.000916907,21.9765
0.000776345,22.9317
0.00092816,23.2238
0.000933144,23.7528
0.0010042,24.3047
0.000949208,27.2482
0.000872981,29.1542
0.000933469,31.2847
0.00112561,35.7805
0.000781327,37.7297
0.00097285,41.51
0.000796719,46.295
0.00117731,50.7576
0.00094642,55.5755
0.00116066,59.469
0.00122739,64.6605
0.000987516,70.8876
0.00125777,76.5812
0.00120926,83.8256
0.00124484,90.1868
0.00141588,96.0765
0.00149682,103.231
0.00133038,106.416
0.00161912,112.27
0.00189867,119.402
0.00178432,126.659
0.00161391,133.767
0.00177179,141.933
0.00199605,152.346
0.00214317,159.814
0.00241377,170.237
0.00232724,178.343
0.00232756,190.027
0.00249969,200.792
0.00268093,210.522
0.00265498,222.422
0.00278779,233.027
0.00275869,243.367
0.00308292,253.256
0.00326127,262.975
0.00333115,272.972
0.00327693,283.896
0.00353075,296.912
0.00365873,307.911
0.00361312,319.093
0.00397213,331.621
0.00407932,344.896
0.00419817,356.803
0.0042544,369.932
0.00432122,382.427
0.00456674,393.575
0.00481253,405.108
0.00476633,417.785
0.0045735,429.278
0.00490262,441.599
0.00496578,453.638
0.00554044,468.907
0.00545094,483.838
0.00563283,496.809
0.00594294,510.076
0.00585907,523.424
0.00613463,535.422
0.00609037,549.409
0.00650154,561.453
0.00636988,574.093
0.00658657,586.466
0.00677292,603.437
0.00683239,618.435
0.00709482,633.5
0.0070506,647.354
0.00715628,659.307
0.00742989,672.981
0.00760102,685.695
0.00793549,698.015
0.00808504,712.359
0.00804754,727.326
0.0081363,743.444
0.00807566,756.783
0.00838253,769.554
0.00850916,780.478
0.00856863,786.145
0.00889666,792.864
0.00875228,801.601
0.00899831,813.563
0.0090976,825.477
0.00919634,839.167
0.00943292,849.593
0.00929649,860.254
0.00932868,871.173
0.0098044,884.962
0.00977064,898.163
0.010218,911.276
0.0103316,924.38
0.0103209,936.271
0.0103383,948.528
0.010588,959.203
0.0106275,973.537
0.0108781,986.753
0.0107959,1002.62
0.0113886,1015.34
0.0113535,1027.71
0.0115305,1040.36
0.0116653,1053.03
0.0116108,1066.48
0.011764,1082.57
0.0121008,1097.66
0.0125341,1108.17
0.0124831,1121.59
0.0124341,1134.54
0.0125929,1148.74
0.0127696,1163.63
0.0129312,1178.58
0.0129813,1192.5
0.0131372,1205.13
0.0132342,1216.52
0.0134481,1232.23
0.0139777,1247.58
0.0139993,1264.26
0.0140448,1278.11
0.0139986,1291.66
0.014294,1304.11
0.0143249,1319.21
0.0147713,1337.25
0.0147776,1352.29
0.0150697,1367.68
0.0151042,1379.95
0.0151837,1395.03
0.0152759,1412.83
0.0155014,1429.69
0.0159398,1443.11
0.0156678,1456.33
0.0160962,1471.07
0.0161597,1486.75
0.0164767,1504.06
0.016585,1520.08
0.0167586,1533.2
0.0169586,1547.48
0.0172068,1563.81
0.0172021,1580.63
0.0174821,1593.83
0.0175921,1604.5
0.0174883,1619.16
0.017952,1635.73
0.0182634,1652.33
0.0181168,1665.32
0.0184601,1677.85
0.0185694,1693.54
0.0187041,1710.66
0.018885,1725.59
0.0191883,1739.26
0.0194381,1752.5
0.0193854,1769.25
0.0196507,1785.35
0.0199429,1798.86
0.0201058,1812.33
0.0203015,1827.48
0.0206176,1846.7
0.0204847,1861.46
0.0207331,1875.51
0.0209325,1889.28
0.0210134,1906.4
0.0214116,1921.95
0.0216238,1935.3
0.0217253,1949.75
0.0218887,1966.93
0.0217391,1983.13
0.0222123,1995.33
0.0222233,2007.96
0.0223743,2024.78
0.0225772,2039.78
0.022643,2052.43
0.0229474,2065.62
0.0226348,2082.24
0.0231484,2096.67
0.0234269,2107.65
0.023414,2121.38
0.023766,2137.94
0.0237569,2151.98
0.0238043,2162.01
0.0241822,2174.77
0.0242935,2189.76
0.0242723,2201.27
0.0245349,2212.89
0.0246812,2225.46
0.0247887,2242.22
0.02478,2253.05
0.0249888,2264.95
0.0255272,2280.94
0.0253253,2294.12
0.0256441,2306.33
0.026054,2321.76
0.0259694,2337.29
0.0259281,2348.72
0.026309,2361.38
0.026311,2376.59
0.0266779,2391.55
0.0267058,2404.33
0.0269059,2418.96
0.0267737,2435.47
0.0270911,2446.34
0.0270057,2458.79
0.0275205,2476.96
0.0274535,2488.66
0.027673,2500.23
0.0278986,2519.24
0.0281342,2532.5
0.0284429,2545.46
0.028431,2561.56
0.0288771,2577.12
0.0286752,2588.14
0.0289148,2606.46
0.029221,2621.74
0.0293444,2634.72
0.0294909,2650.45
0.0296212,2667.22
0.0295817,2679.31
0.0300535,2694.64
0.0304165,2712.79
0.0304876,2726.6
0.030476,2743.44
0.0308017,2760.99
0.0308624,2773.25
0.0309814,2789.44
0.0312111,2806.99
0.0314391,2820.17
0.0315266,2836.29
0.0317832,2853.37
0.0318326,2865.48
0.0321914,2883.13
0.0323536,2899.13
0.0326725,2912.53
0.0324659,2932.45
0.0327454,2948.47
0.0328335,2961.89
0.033185,2979.78
0.0333777,2993.49
0.0335768,3010.03
0.0334572,3028.45
0.0339876,3042.56
0.0341832,3060.06
0.0343608,3077.5
0.034324,3090.2
0.0345277,3110.72
0.0348259,3125
0.0349505,3139.8
0.0351599,3159.77
0.0354343,3172.2
0.0355424,3191.09
0.0361014,3208.5
0.0361108,3223.4
0.0364432,3244.19
0.0363332,3256.29
0.0364683,3273.6
0.0368938,3293.22
0.0372264,3307.78
0.0371174,3328.24
0.0373396,3342.51
0.0375015,3359.98
0.0375665,3377.51
0.037802,3393.06
0.0382001,3414.23
0.0382275,3429.89
0.0383675,3448.74
0.038678,3465.56
0.0387588,3481.16
0.0391703,3502.5
0.0393031,3516.43
0.0395919,3537.58
0.0396355,3551.86
0.0397913,3569.44
0.0401875,3590.7
0.0402635,3604.19
0.0404754,3626.66
0.0406334,3640.03
0.0409729,3661.56
0.041177,3676.87
0.0413839,3696.88
0.0415168,3715.39
0.0416625,3730.78
0.0418812,3750.7
0.0422362,3765.79
0.0421649,3789.01
0.042247,3801.66
0.0426978,3822.74
0.0429396,3838.53
0.0432525,3859.49
0.0436356,3877.85
0.043666,3896.52
0.0435547,3915.87
0.0440732,3933.07
0.0441732,3953.86
0.0444487,3968.42
0.0446635,3990.61
0.0448058,4006.01
0.0450551,4028.66
0.0453523,4044.32
0.0454946,4066.54
0.0456654,4080.73
0.0460649,4103.56
0.0461045,4120.92
0.0464931,4142.34
0.0465492,4160.12
0.0468971,4180.98
0.0471795,4198.81
0.047357,4219.96
0.0476822,4238.53
0.0479177,4260.57
0.0481377,4277.97
0.0483439,4297.41
0.0485986,4315.7
0.048576,4337.76
0.0489076,4354.97
0.0489936,4375.88
0.0495128,4393.69
0.0496723,4415.44
0.049813,4433.13
0.0499095,4454.14
0.0501538,4470.78
0.050402,4492.81
0.051072,4544.54
0.051017,4540.39
0.0512278,4553.56
0.051367,4571.49
0.0516421,4590.89
0.0518655,4608.08
0.0520915,4630.11
0.0525397,4647.59
0.0525739,4668.77
0.0529421,4685.01
0.0531155,4706.97
0.0531793,4724.57
0.0534802,4746.13
0.0538219,4764.05
0.0541213,4786.33
0.0543596,4805.7
0.054514,4824.5
0.0547259,4845.41
0.054992,4864.86
0.0551399,4887.1
0.0553229,4904.69
0.055782,4925.84
0.0559363,4947.91
0.0560303,4968.25
0.0566304,4991.24
0.0566746,5010.34
0.0572685,5035.66
0.0572911,5054.62
0.0573677,5075.03
0.057711,5094.22
0.0581518,5116.81
0.0582225,5140.24
0.0586588,5159.08
0.0586626,5182.85
0.0589354,5203.41
0.0593356,5226.12
0.0596245,5247.42
0.0598065,5268.16
0.0600708,5291.31
0.0603644,5310.62
0.0606985,5332.16
0.0609287,5358.48
0.0612103,5379.2
0.0614934,5402.69
0.0618214,5425.24
0.0620084,5447.47
0.0621761,5472.35
0.0626306,5492.74
0.0630349,5518.9
0.0632011,5541.37
0.0632547,5563.91
0.0637203,5589.83
0.0640079,5613.61
0.0642281,5636.79
0.0647282,5661.6
0.0648386,5685.42
0.065271,5709.95
0.0655771,5735.66
0.0657543,5757.54
0.0661994,5784.19
0.0665698,5808.72
0.0663834,5829.43
0.0670432,5858.86
0.0671333,5883.32
0.0675228,5906.23
0.0679044,5932.2
0.068306,5957.84
0.0685383,5981.96
0.0687429,6007.65
0.0692041,6034.5
0.0690872,6058.22
0.0695955,6085.01
0.0698467,6112.46
0.0702653,6136.56
0.0706717,6163.46
0.0709914,6189.24
0.0713307,6214.13
0.0716703,6241.99
0.0721681,6269.18
0.0722528,6294.98
0.0726748,6321.03
0.0731815,6349.75
0.0732406,6374.53
0.073653,6399.6
0.0740806,6429.1
0.0742698,6457.4
0.0746211,6484.81
0.0752729,6513.06
0.0753795,6540.07
0.0759263,6564.89
0.0760296,6591.18
0.0764507,6620.48
0.0769689,6646.82
0.0771438,6674.5
0.0775341,6702.42
0.0778798,6731.84
0.0783718,6756.41
0.0787181,6784.8
0.0789751,6815.16
0.079343,6843.21
0.0795245,6868.76
0.0802618,6899.63
0.0807139,6928.74
0.0807311,6956.01
0.0810937,6983.69
0.0815555,7013.01
0.0820837,7044.39
0.0824914,7073.34
0.0828236,7101.06
0.0831673,7130.73
0.0836285,7161.06
0.0841381,7188.87
0.0841574,7215.86
0.0846894,7246.4
0.0853175,7276.28
0.0854553,7304.29
0.085821,7333.04
0.0860868,7358.26
0.0867164,7391.56
0.0871085,7421.79
0.0873694,7448.79
0.0876876,7477.73
0.0884401,7507.26
0.0887948,7538.8
0.0890175,7569.91
0.0895208,7597.58
0.0899752,7627.59
0.090331,7658.73
0.0908031,7690.55
0.0909795,7721.64
0.091472,7749.88
0.0919006,7781.41
0.0920337,7814.05
0.0928601,7846.23
0.0934899,7876.25
0.0937677,7906.67
0.0942792,7936.46
0.0944243,7969.59
0.0953378,8002.94
0.095563,8032.59
0.0956885,8063.78
0.0961925,8093.64
0.0966536,8123.95
0.0972373,8155.38
0.0975367,8189.59
0.0982107,8222.03
0.0983969,8254.89
0.0990937,8282.47
0.099494,8314.73
0.100165,8347.66
0.100388,8379.74
0.100841,8415.5
0.101469,8448.49
0.101829,8478.85
0.102208,8508.71
0.102936,8541.98
0.103303,8574.88
0.103905,8608.79
0.104363,8642.71
0.104772,8675.55
0.105326,8707.14
0.106045,8738.62
0.106039,8771.79
0.10694,8804.66
0.107378,8840.02
0.107926,8873.53
0.108237,8908.68
0.108973,8943.71
0.109382,8976.42
0.109917,9010.14
0.110563,9042.98
0.110979,9077.27
0.111658,9112.57
0.112338,9146.63
0.1126,9181.42
0.113249,9215.22
0.113835,9251.81
0.11431,9286.34
0.114548,9319.82
0.115426,9352.69
0.115945,9385.02
0.116469,9419.45
0.117053,9453.13
0.117805,9488.24
0.118278,9523.75
0.118857,9558.01
0.119331,9594.18
0.119951,9629.4
0.120645,9664.05
0.121157,9702.76
0.121721,9736.73
0.122307,9771.59
0.122998,9807.03
0.12349,9843
0.124176,9878.86
0.124888,9915.08
0.125643,9950.11
0.125826,9984.96
0.126717,10019.3
0.12756,10055.5
0.128072,10091.9
0.128647,10128.2
0.129213,10163.2
0.129891,10198.4
0.130432,10235.3
0.131158,10270.8
0.131905,10309.2
0.132516,10345.7
0.133327,10381.2
0.134042,10418
0.134515,10454.8
0.135206,10492
0.135904,10531
0.136518,10567.4
0.137199,10604.2
0.13789,10639.7
0.139021,10678.1
0.139479,10713.4
0.140041,10751.7
0.140874,10787.6
0.141527,10825.3
0.142288,10860.8
0.143098,10897.2
0.143997,10934.7
0.144853,10972.7
0.145315,11009.6
0.146046,11047.3
0.146933,11084.2
0.14771,11120.4
0.148485,11159.5
0.149225,11196.7
0.150223,11235.3
0.150937,11271.4
0.151542,11308.4
0.152201,11347.5
0.153545,11384.7
0.154086,11422.5
0.154842,11458.2
0.155614,11496
0.156454,11534.5
0.157343,11574.8
0.158221,11613.8
0.159169,11654.4
0.159838,11690.6
0.160756,11729
0.16165,11767.8
0.162563,11806.8
0.163453,11844.2
0.164376,11881.9
0.165233,11918.4
0.165531,11895
0.170161,12183.7
0.174046,12322.3
0.17733,12438.7
0.18029,12553.2
0.183238,12663.4
0.186442,12778.6
0.189649,12890.5
0.193077,13002
0.196285,13115.5
0.199776,13227.6
0.2033,13338.5
0.207075,13447.7
0.21084,13557.5
0.214093,13664.7
0.218204,13772.9
0.222077,13881.1
0.225962,13983
0.230268,14086
0.23396,14188.5
0.238331,14289.7
0.243006,14390.9
0.247382,14488.9
0.252083,14587.8
0.256782,14683.1
0.261715,14777.4
0.266869,14873.6
0.27187,14963
0.277247,15052.3
0.282419,15138.3
0.288,15224.9
0.29371,15309.7
0.299652,15391.6
0.305938,15469.8
0.312108,15547
0.318511,15624.9
0.324908,15697.5
0.331965,15768
0.338751,15838.5
0.346169,15903.5
0.353158,15967.3
0.360864,16030.7
0.368819,16091.5
0.376781,16146.9
0.384626,16204.2
0.393192,16256.6
0.40196,16305.4
0.410605,16353.7
0.419877,16399.5
0.428752,16440.2
0.437701,16482.3
0.447273,16521.3
0.456826,16557.8
0.466853,16595.4
0.476384,16626.3
0.48684,16658
0.49695,16689.3
0.507769,16717.1
0.518199,16743.6
0.529095,16769.6
0.53997,16795.7
0.551244,16815.5
0.562481,16841.3
0.573698,16862.4
0.585417,16880.1
0.596779,16899.6
0.608755,16916.4
0.620219,16934.4
0.632133,16951.2
0.644145,16968.4
0.65638,16981.4
0.668739,16996.9
0.680904,17012.6
0.693244,17022.5
0.705689,17038.3
0.718292,17050.4
0.730925,17059.8
0.74334,17073.7
0.756403,17085.6
0.769193,17095.3
0.781977,17107.8
0.795357,17118.7
0.808384,17125.5
0.821295,17137
0.834566,17147.7
0.847678,17153.2
0.860913,17164
0.873979,17174.7
0.887214,17178.7
0.900571,17189.5
0.913951,17198.9
0.927192,17203.9
0.94078,17210.8
0.953917,17221.8
0.967325,17226.3
0.980991,17236.1
0.994705,17244.4
1.00822,17248.3
1.02177,17258.6
1.0352,17265.6
1.04856,17268.2
1.06214,17276.9
1.0758,17284.9
1.08934,17289.1
1.10286,17295.6
1.11669,17303.3
1.12976,17306.8
1.14387,17316
1.1575,17322
1.171,17325.3
1.18479,17332.6
1.19866,17340.2
1.21238,17343.1
1.22626,17350.6
1.24038,17356.1
1.25597,17359
1.2773,17367
1.2984,17374.4
1.31959,17377.3
1.34078,17381.1
1.36198,17389.3
1.38303,17391.8
1.40426,17395.7
1.42541,17404.6
1.44655,17405.5
1.46779,17413.1
1.48898,17419.6
1.51004,17420.9
1.53127,17426.9
1.55237,17433.8
1.57352,17435.9
1.59471,17441.3
1.6159,17447
1.63695,17450.1
1.65828,17455.1
1.67938,17461.4
1.70052,17463
1.72167,17468.8
1.74291,17474
1.76401,17476.5
1.78524,17479.1
1.80639,17485.1
1.82749,17490.2
1.84877,17494.1
1.86992,17500
1.89101,17501.6
1.91225,17505.2
1.9334,17512.3
1.9545,17514.7
1.97569,17519.3
1.99692,17522.2
2.01798,17524.4
2.03926,17531.6
2.06041,17536.7
2.0815,17539.5
2.10274,17540.7
2.12393,17546.4
2.14499,17549.6
2.16627,17553.1
2.18732,17559.2
2.20851,17561.2
2.22975,17563.2
2.25099,17568.7
2.27204,17572.2
2.29323,17575.3
2.31438,17579.7
2.33548,17582.1
2.35671,17585.8
2.3779,17589.8
2.39896,17593.9
2.42029,17597.7
2.44143,17601.6
2.46258,17602.3
2.48372,17606
2.50491,17610.4
2.52596,17613.7
2.54725,17617.3
2.56844,17620.1
2.58954,17620.9
2.61078,17627.3
2.63192,17631.7
2.65297,17634.2
2.67421,17636.1
2.6954,17639.5
2.71655,17643.2
2.73769,17645.9
2.75888,17650.4
2.77994,17651.1
2.80127,17655.7
2.82241,17658.8
2.84356,17662.6
2.8647,17664.3
2.88594,17667.7
2.90699,17669.9
2.92827,17671.6
2.94937,17676.2
2.97052,17679.6
2.99171,17682.5
3.0129,17684.7
3.034,17687.7
3.05524,17691.8
3.07638,17693
3.09748,17698.1
3.11867,17700.6
3.13986,17701.9
3.16096,17706.8
3.18225,17708.2
3.20334,17711.2
3.22454,17714.7
3.24568,17715.6
3.26692,17718.2
3.28802,17720.8
3.30921,17725.7
3.33035,17726.9
3.3515,17729.6
3.37274,17733.4
3.39393,17734.2
3.41503,17738.5
3.43626,17741.6
3.45736,17742.7
3.47851,17745.4
3.4997,17748.2
3.52089,17750.8
3.54199,17753.9
3.56323,17756.1
3.58437,17756.9
3.60561,17760.2
3.62675,17764.4
3.64794,17766
3.669,17769
3.69023,17771.7
3.71138,17772.9
3.73257,17774.5
3.75371,17777.8
3.77486,17778.8
3.79605,17782.3
3.8172,17786.4
3.83839,17787
3.85949,17789.2
3.88068,17794
3.90182,17794.1
3.92301,17797
3.9442,17799.2
3.96535,17799.3
3.98654,17804.6
4.00768,17807.3
4.02888,17808.8
4.05002,17810.2
4.07121,17813.6
4.09231,17814.5
4.11355,17816.5
4.13469,17820.8
4.15584,17819.7
4.17703,17823.7
4.19822,17827.5
4.21932,17829.1
4.24051,17831.4
4.2617,17835.3
4.2828,17833.5
4.30399,17836.7
4.32514,17839.4
4.34628,17842.3
4.36757,17843.4
4.38871,17847.1
4.4099,17846.5
4.431,17849.5
4.45219,17853.1
4.47329,17854.2
4.49453,17857.7
4.51572,17858.8
4.53682,17859.5
4.55806,17862
4.5792,17865.9
4.6003,17869.1
4.62154,17868.3
4.64273,17872.5
4.66383,17872.7
4.68497,17874.2
4.70616,17878.5
4.72731,17876.8
4.74855,17879.3
4.76974,17883.1
4.79079,17883.5
4.81198,17885.3
4.83317,17889.3
4.85432,17889.7
4.87555,17890.4
4.8967,17895.4
4.9178,17895.1
4.93908,17897.6
4.96023,17900.8
4.98137,17900.4
5.00252,17903.6
5.02371,17905.5
5.04481,17907.1
5.06604,17908.9
5.08723,17911.5
5.10833,17911.9
5.12957,17913.7
5.15072,17917.8
5.17181,17918.4
5.19301,17918.7
5.2142,17922.1
5.23529,17921.6
5.25649,17924.4
5.27772,17926.8
5.29878,17928.7
5.32006,17929.5
5.34121,17931.9
5.3623,17935
5.38349,17935
5.40473,17938.9
5.42583,17937.4
5.44707,17939.9
5.46821,17942.1
5.48931,17942.8
5.51055,17947
5.53174,17947.7
5.55284,17949
5.57403,17950.6
5.59527,17952.3
5.61632,17954
5.63761,17955.5
5.6588,17956.5
5.67985,17958.2
5.70109,17960.4
5.72223,17962.7
5.74338,17964.2
5.76457,17965.7
5.78576,17967.1
5.80681,17968.2
5.82805,17970
5.84919,17969.7
5.87034,17972.6
5.89158,17974.1
5.91277,17974.9
5.93382,17976.7
5.95501,17978.2
5.9762,17980.1
5.99735,17980.4
6.01849,17984.4
6.03968,17983.8
6.06078,17987.3
6.08202,17987.9
6.10321,17988.4
6.12436,17991.1
6.1455,17994.7
6.16669,17993
6.18779,17996
6.20903,17995.8
6.23017,17997.9
6.25132,17998.7
6.27251,18000.8
6.2937,18002.7
6.31484,18004.1
6.33608,18005.6
6.35723,18003.9
6.37833,18007.3
6.39952,18009.4
6.42071,18009.3
6.44181,18012.7
6.46309,18014.3
6.48419,18013.7
6.50538,18017.3
6.52653,18018.2
6.54776,18017.9
6.56886,18018.8
6.59005,18020.9
6.6112,18021.6
6.63234,18024.4
6.65353,18025.9
6.67473,18025.3
6.69587,18028.3
6.71706,18030.3
6.73821,18029.4
6.75935,18031.8
6.78054,18033.3
6.80173,18032.8
6.82283,18034.9
6.84407,18037.5
6.86517,18037.6
6.88636,18039.4
6.90751,18043.2
6.92874,18040.9
6.9498,18042.1
6.97108,18044.5
6.99213,18045.8
7.01332,18047.2
7.03451,18049.4
7.05566,18049.3
7.07685,18050.9
7.09804,18054.1
7.11919,18052.2
7.14038,18053.3
7.16152,18056.9
7.18267,18055.6
7.20381,18057.7
7.22505,18060.1
7.24619,18058.6
7.26739,18060.1
7.28853,18065.6
7.30972,18065.8
7.33082,18064
7.35206,18066.8
7.37311,18066.8
7.39435,18068.5
7.41545,18070.7
7.43664,18069.8
7.45778,18071.9
7.47907,18073.9
7.50012,18072.4
7.52131,18074.9
7.5425,18076.7
7.56365,18077.2
7.58484,18076.3
7.60608,18080.1
7.62713,18079.2
7.64832,18080.2
7.66951,18084.8
7.69066,18083.2
7.7118,18083.4
7.73304,18086.1
7.75409,18085.8
7.77533,18086.3
7.79652,18088.6
7.81766,18088.1
7.83886,18089
7.86005,18092.7
7.88114,18094.7
7.90238,18092.9
7.92357,18096.5
7.94472,18094.2
7.96582,18095.2
7.98706,18098.1
8.00815,18098.4
8.02939,18100.5
8.05054,18100
8.07168,18101.9
8.09283,18101.8
8.11406,18104.5
8.13512,18105
8.15635,18103.9
8.1775,18106.1
8.19864,18107.5
8.21979,18107.1
8.24107,18109.2
8.26217,18111
8.28331,18109.9
8.30451,18112.2
8.32565,18113
8.3468,18113.1
8.36803,18115.5
8.38913,18115.1
8.41037,18115
8.43152,18118.6
8.45266,18120.6
8.4738,18118.9
8.49504,18122.2
8.51614,18119.6
8.53729,18120.7
8.55848,18122.4
8.57962,18124
8.60081,18124.1
8.62205,18123.1
8.64315,18126.5
8.66429,18126.3
8.68549,18127.5
8.70663,18129.7
8.72782,18128.2
8.74901,18129.7
8.77011,18130.7
8.7913,18132.3
8.81254,18131.9
8.83369,18134.2
8.85478,18133.1
8.87602,18133.9
8.89707,18137
8.91831,18134.5
8.9395,18135.4
8.96065,18137.7
8.98179,18137.5
9.00298,18138.6
9.02413,18141.6
9.04532,18140.8
9.06656,18139.8
9.08766,18142.4
9.1088,18142.2
9.12999,18142.5
9.15114,18144
9.17233,18144.3
9.19352,18143
9.21467,18146.4
9.23576,18147.2
9.257,18147.7
9.27815,18148.8
9.29934,18149.2
9.32053,18149.9
9.34163,18150.3
9.36277,18151.6
9.38401,18149.9
9.4052,18153.3
9.42635,18151.5
9.44754,18153.3
9.46868,18154.9
9.48983,18154.1
9.51102,18153.9
9.53216,18157.5
9.55335,18157.6
9.5745,18156.3
9.59569,18158.2
9.61679,18158.8
9.63803,18157.1
9.65913,18160.2
9.68027,18161.3
9.70146,18160
9.72265,18161.5
9.74384,18161.1
9.76504,18159.3
9.78623,18163.6
9.80728,18163.4
9.82852,18163.7
9.84971,18162.5
9.87085,18164.1
9.89204,18164.7
9.91319,18167.3
9.93433,18167.3
9.95553,18166.1
9.97667,18167.9
9.99786,18168.6
10.019,18169.8
10.0402,18171.5
10.0613,18170.7
10.0825,18169.2
10.1037,18169.8
10.1248,18173.3
10.146,18171.5
10.1672,18173.9
10.1883,18175.2
10.2095,18173.3
10.2307,18175.4
10.2519,18175.2
10.273,18175.9
10.2942,18176.4
10.3153,18176.3
10.3365,18176.4
10.3576,18178.8
10.3788,18179.8
10.3999,18178.6
10.4211,18179.2
10.4423,18181.5
10.4635,18180
10.4846,18181.9
10.5058,18181.5
10.527,18181.7
10.5482,18182
10.5693,18182.5
10.5905,18183
10.6117,18183.5
10.6328,18184.5
10.654,18184.6
10.6752,18184.6
10.6963,18186.3
10.7174,18184.6
10.7387,18187.6
10.7598,18187.2
10.781,18186.8
10.8022,18188.2
10.8233,18189.2
10.8444,18187
10.8656,18187.5
10.8868,18189.1
10.9079,18189
10.9292,18188.7
10.9503,18191.3
10.9715,18189.5
10.9926,18189.4
11.0138,18189
11.0349,18189.8
11.0561,18190.5
11.0773,18190.2
11.0985,18191
11.1197,18189.9
11.1408,18192.1
11.1619,18192
11.1831,18191.1
11.2043,18192.3
11.2255,18190.4
11.2466,18192
11.2678,18191.8
11.289,18191.9
11.3102,18193
11.3313,18191.7
11.3525,18193.7
11.3736,18193.3
11.3949,18192.7
11.416,18193.9
11.4372,18192.5
11.4583,18193.2
11.4795,18192.9
11.5006,18195.7
11.5218,18193.3
11.543,18194.4
11.5642,18195.2
11.5854,18193.4
11.6065,18194.7
11.6276,18194.4
11.6488,18194
11.67,18196.5
11.6912,18194.8
11.7123,18195.5
11.7335,18195.9
11.7547,18195.9
11.7759,18194.6
11.797,18196.2
11.8182,18196.4
11.8393,18196.6
11.8605,18197
11.8817,18196.7
11.9029,18194.7
11.924,18198.5
11.9452,18197.6
11.9663,18197.4
11.9875,18197.2
12.0087,18195.1
12.0299,18195.5
12.051,18196.6
12.0722,18195.4
12.0934,18194.4
12.1146,18197
12.1357,18196.4
12.1569,18195.4
12.178,18196.7
12.1993,18196.1
12.2203,18195.9
12.2415,18196.2
12.2627,18196.7
12.2839,18193.8
12.305,18195.7
12.3262,18197.1
12.3474,18194.5
12.3686,18193.6
12.3897,18193.8
12.4109,18192.7
12.432,18195.2
12.4533,18192.3
12.4744,18191.4
12.4956,18194.5
12.5167,18192.8
12.5379,18192.3
12.559,18191.3
12.5801,18191.8
12.6013,18189.8
12.6224,18191.6
12.6436,18191.8
12.6648,18188.4
12.686,18189.3
12.7071,18189.2
12.7282,18186.4
12.7494,18187.3
12.7706,18187
12.7918,18185.2
12.813,18184.4
12.8342,18185.4
12.8553,18182.5
12.8765,18184.9
12.8976,18184.6
12.9188,18180.7
12.94,18182.1
12.9612,18181
12.9823,18179.1
13.0035,18180.7
13.0246,18179.8
13.0458,18177.2
13.067,18176.8
13.0881,18176.5
13.1093,18174.7
13.1305,18173.9
13.1517,18173.4
13.1728,18169.7
13.194,18171.1
13.2152,18171.6
13.2363,18166.7
13.2576,18167.2
13.2787,18166.2
13.2999,18164.1
13.321,18163.5
13.3422,18164.1
13.3633,18160.6
13.3845,18160.4
13.4056,18159
13.4268,18156.2
13.448,18156.6
13.4692,18154.3
13.4903,18151.6
13.5115,18149.4
13.5327,18148.6
13.5538,18147.4
13.575,18145.2
13.5962,18143.6
13.6173,18141.7
13.6386,18140.1
13.6597,18139.1
13.6809,18136.3
13.702,18134.3
13.7232,18132.1
13.7443,18130.3
13.7655,18128.3
13.7866,18124.8
13.8078,18123.4
13.829,18121.1
13.8502,18117.8
13.8713,18116.3
13.8926,18110.7
13.9137,18110.2
13.9348,18107.4
13.956,18105.2
13.9771,18102.6
13.9983,18096.7
14.0195,18097
14.0407,18091.8
14.0618,18088.5
14.083,18086.9
14.1041,18082.5
14.1252,18080.7
14.1465,18074.7
14.1676,18074.3
14.1888,18068.2
14.21,18066.5
14.2311,18060.7
14.2523,18058.3
14.2735,18053
14.2947,18047.7
14.3158,18046.8
14.337,18041.4
14.3582,18036.3
14.3793,18030.9
14.4005,18028
14.4217,18022.1
14.4428,18019.2
14.464,18014.3
14.4852,18008.8
14.5063,18004.9
14.5275,17999.7
14.5486,17993.8
14.5698,17988.7
14.591,17984.5
14.6122,17977.1
14.6334,17973.7
14.6546,17965.8
14.6757,17960
14.6969,17955.8
14.718,17948.1
14.7392,17940.3
14.7603,17936
14.7816,17931.7
14.8027,17920.2
14.8239,17916.7
14.8451,17909.5
14.8662,17901.2
14.8873,17895.9
14.9085,17888.1
14.9296,17880.1
14.9509,17871.3
14.9721,17862.6
14.9932,17854.5
15.0144,17848.7
15.0355,17839.2
15.0567,17827
15.0779,17820.3
15.0991,17810.9
15.1202,17800.4
15.1413,17792
15.1626,17783.7
15.1837,17769.6
15.2049,17762.7
15.2261,17752.6
15.2472,17740.2
15.2684,17730.3
15.2896,17718.4
15.3107,17704.6
15.3319,17693.5
15.3531,17680.6
15.3742,17665.1
15.3954,17655.2
15.4166,17641
15.4378,17625.5
15.4589,17611.5
15.4801,17597.5
15.5012,17577.7
15.5224,17563.3
15.5436,17547.4
15.5648,17525.4
15.586,17508.4
15.6071,17489.2
15.6282,17460.6
15.6494,17441.1
15.6706,17418.4
15.6917,17390.7
15.7129,17365
15.7342,17330.4
15.7553,17298.6
15.7765,17261.6
15.7976,17222.2
15.8188,17178.9
15.84,17141.6
15.8612,17088.6
15.8823,17033.2
15.9035,16982.9
15.9246,16924.8
15.9458,16858.7
15.967,16708.8
15.9893,9474.8
16.0106,8188.97
16.0252,5257.53