File: data/PrimaryData/Brass/Tensile_004.csv
Displacement (mm),Load (N)
0.000523125,-0.778477
0.000346981,-0.374009
0.000578224,-0.328136
0.000381348,-0.975128
0.000606842,-1.00719
0.000468825,1.07295
0.000538801,0.514912
0.000557998,1.53195
0.000765606,0.663986
0.000557802,0.722896
0.000424389,2.15274
0.000700614,2.20764
0.000470856,2.70374
0.000638828,4.00578
0.000552161,4.4454
0.000512627,5.60245
0.000559132,6.52175
0.000528594,6.72627
0.000454829,8.15494
0.0007545,8.50864
0.000643643,10.5287
0.000648158,10.53
0.000655417,14.0585
0.000648866,14.7864
0.000702645,17.7844
0.000565579,18.3652
0.000567376,22.0039
0.000680632,23.7813
0.000752731,25.6345
0.000821875,28.0115
0.000716546,30.1495
0.000787953,32.7212
0.000903647,35.4295
0.000724534,39.0871
0.000896221,40.2296
0.000945275,43.7659
0.00100459,48.2799
0.00102451,52.3859
0.00115642,55.941
0.0010555,58.8165
0.0012215,63.9409
0.00104546,68.7613
0.00134254,72.3133
0.00112572,78.2953
0.00125671,83.0937
0.00129618,87.6578
0.00159182,92.6547
0.00153702,99.7787
0.00130029,107.172
0.00164431,114.211
0.00164433,119.559
0.00193201,128.76
0.00189203,136.049
0.00215542,144.557
0.0019677,153.494
0.0022191,161.402
0.00211445,169.979
0.00244649,179.289
0.0023243,186.199
0.00249329,195.529
0.00234867,202.692
0.00244289,212.142
0.00278013,222.545
0.00285077,232.147
0.00296563,241.399
0.00271081,250.395
0.00307471,263.201
0.00294275,274.589
0.00335754,285.955
0.00341079,299.672
0.00352256,311.096
0.00341057,322.213
0.00384719,333.036
0.0039892,344.187
0.0041156,355.782
0.00412389,366.474
0.00433947,377.255
0.00445228,388.701
0.00479823,400.678
0.00467081,413.763
0.00496942,427.553
0.0049309,442.557
0.00498289,456.086
0.0052319,468.219
0.00531607,481.582
0.00569648,493.839
0.00559998,505.023
0.00586534,517.653
0.00580396,529.884
0.0058124,543.786
0.00620141,557.457
0.00619753,570.683
0.00632351,584.552
0.00673784,599.251
0.00667193,611.372
0.00687757,621.185
0.00679382,632.803
0.00682568,644.746
0.00729962,653.561
0.0075022,665.139
0.00759578,674.474
0.00755932,680.831
0.00740756,680.054
0.00732623,673.746
0.00715796,666.227
0.00708264,658.664
0.00713352,655.316
0.00719955,655.688
0.0071806,658.6
0.00719389,664.227
0.00713589,668.922
0.00725527,674.721
0.00737051,679.662
0.00750772,685.687
0.00730362,691.623
0.00767065,699.086
0.0074904,706.678
0.00737232,714.436
0.00775115,725.205
0.0075997,732.239
0.00788365,738.465
0.00789919,745.471
0.00791674,753.25
0.00794527,761.802
0.00839055,771.956
0.00867073,781.991
0.00845425,789.931
0.00853892,796.172
0.00849572,803.511
0.00849761,811.895
0.00888955,822.496
0.00881237,831.093
0.00899298,841.198
0.00915501,848.544
0.00924049,855.633
0.00916747,865.363
0.00938312,873.968
0.00936549,885.45
0.00955936,895.546
0.00933313,905.749
0.00958198,914.508
0.00963016,922.559
0.0098674,933.568
0.00978362,944.607
0.010229,955.803
0.0101033,963.311
0.0105474,971.867
0.0101589,979.8
0.0101984,988.862
0.0105945,995.872
0.0104447,991.059
0.0106219,987.13
0.0103536,988.046
0.0106098,994.933
0.0107434,1008.48
0.0108641,1018.46
0.0109852,1028.56
0.0110254,1037.5
0.0110391,1047.63
0.0110562,1060.93
0.0114521,1074.36
0.0114418,1083.36
0.0114868,1091.78
0.0115768,1100.06
0.0117921,1109.35
0.0117722,1123.13
0.0120392,1131.56
0.0121507,1138.98
0.0120641,1147.85
0.0120519,1160.21
0.0122607,1171.59
0.0125449,1180.13
0.0128002,1188.42
0.0129915,1198.03
0.0127853,1211.4
0.012879,1222.02
0.0130972,1228.35
0.0129311,1237.87
0.0133953,1248.38
0.0132819,1260.32
0.0136221,1270.47
0.0134787,1278.48
0.0136346,1289.23
0.0138796,1301.59
0.0140015,1312.29
0.0141885,1321.09
0.0141283,1328.88
0.0142548,1340.66
0.0142752,1353.14
0.0144246,1362.64
0.0145356,1370.66
0.0146213,1384.34
0.0144526,1396.18
0.0148707,1406.17
0.0148609,1414.16
0.0150591,1426.56
0.0152617,1439.87
0.0153438,1447.18
0.0154337,1456.34
0.0155237,1470.3
0.0156616,1482.97
0.0159188,1492.31
0.0159302,1503.22
0.0161153,1516.4
0.0161622,1527.81
0.0161706,1535.47
0.0163691,1547.36
0.0165218,1561.42
0.0168374,1573.31
0.016744,1580.99
0.0169929,1595.35
0.0170829,1610.54
0.0172892,1619.67
0.0170878,1629.68
0.0172867,1643.85
0.0174439,1655.15
0.0175864,1667.1
0.0180134,1678.72
0.0182264,1695.4
0.0180828,1705.45
0.0180923,1715.52
0.018417,1730.17
0.0183609,1741.8
0.0186313,1752.42
0.0188908,1766.1
0.0188901,1782.46
0.0189293,1793.28
0.019246,1806.08
0.0193391,1820.84
0.0194289,1832.52
0.0196227,1844.8
0.0198342,1862.54
0.0198111,1875.43
0.0199106,1884.5
0.0203653,1900.79
0.0205973,1914.84
0.020606,1924.94
0.0208139,1941.39
0.0210842,1955.89
0.0210995,1967.62
0.0213229,1982.3
0.021335,1998.02
0.0217188,2009.65
0.0217574,2025.33
0.0217978,2041.28
0.0219883,2054.53
0.0220603,2068.34
0.02242,2087.81
0.0224275,2098.53
0.022371,2113.1
0.0227261,2130.78
0.0227204,2142.12
0.023165,2159.4
0.0231993,2175.18
0.0233645,2186.61
0.0235979,2203.87
0.0236484,2219.24
0.0239584,2233.86
0.0241531,2253.03
0.0242464,2268.48
0.0244381,2281.71
0.0246595,2303.56
0.0248056,2314.71
0.0248957,2329.52
0.0250126,2349.35
0.0254097,2363.63
0.0256043,2381.6
0.0257317,2396.42
0.0259771,2410.54
0.0260195,2430.18
0.0261382,2446.05
0.0267171,2461.46
0.0265974,2480.83
0.0266797,2494.52
0.027163,2514.67
0.027148,2530.38
0.0270644,2544.83
0.027441,2566.57
0.0276396,2580.77
0.0279209,2597.59
0.0281321,2614.42
0.0283088,2630.26
0.0285046,2651.4
0.0285499,2665.23
0.0290245,2684.23
0.0290461,2700.83
0.0292575,2719.07
0.0296228,2740.73
0.02977,2754.38
0.0298349,2775.52
0.0301068,2790.44
0.0300774,2807.79
0.0306381,2828.39
0.0306337,2842.2
0.030884,2863.37
0.0307357,2879.41
0.0310596,2899.89
0.0314015,2918.49
0.0317537,2935.67
0.0318735,2955.77
0.0321439,2971.83
0.0323333,2994.6
0.0323992,3009.49
0.0327677,3031.7
0.0329167,3046.6
0.0331798,3067.45
0.0332957,3086.6
0.0334798,3104.54
0.0336288,3126.92
0.0339687,3143.87
0.0342083,3166.36
0.0345366,3180.38
0.0346379,3204.95
0.0345973,3222.98
0.0352564,3243.44
0.0350446,3262.27
0.0355777,3281.44
0.0359194,3303.98
0.0361103,3323.89
0.036233,3346.67
0.0365457,3362.47
0.0369508,3387.25
0.0371664,3404.52
0.0374607,3428.94
0.0376826,3446.06
0.0377313,3470.11
0.0378356,3486.96
0.0381378,3510.27
0.0384569,3529.42
0.0388117,3553.51
0.0389472,3572.11
0.0391903,3597.51
0.0395207,3614.16
0.0399187,3637.5
0.0400627,3656.72
0.0403954,3681.17
0.0404886,3699.04
0.0409471,3724.07
0.0410858,3743.99
0.041411,3770.37
0.041727,3790.04
0.0419134,3816.67
0.0419494,3834.23
0.0425111,3859.57
0.0425811,3880.14
0.0429082,3905.46
0.0432909,3950.58
0.0436781,3964.08
0.0440194,3985.89
0.0438476,4003.48
0.0441293,4030.08
0.0446576,4049.42
0.0448496,4076.65
0.0453664,4098.85
0.0453759,4122.85
0.0458595,4144.78
0.0460731,4169.8
0.0463111,4193.99
0.0466066,4216.96
0.0469457,4241.39
0.0469843,4263.68
0.047293,4289.3
0.0477291,4310.58
0.0481742,4335.04
0.0481925,4357.57
0.0486875,4382.57
0.0489206,4405.95
0.0493521,4429.86
0.0496487,4456.64
0.05013,4479.01
0.050173,4505.23
0.0502144,4526.74
0.0508481,4553.2
0.0511046,4578.64
0.0514305,4600.71
0.051455,4627.92
0.0522688,4652.28
0.0523146,4678.93
0.052584,4702.82
0.0533296,4730.67
0.0532053,4756.53
0.0535567,4778.02
0.0540324,4806.41
0.0542374,4831.15
0.0547473,4858
0.0550321,4885.78
0.0552403,4908.03
0.0555947,4936.93
0.0557792,4960.94
0.0563258,4987.53
0.0567936,5016.42
0.0570091,5038.78
0.0572725,5066.33
0.0578907,5093.68
0.0581688,5119.59
0.058378,5147.88
0.058952,5173.31
0.0592343,5200.03
0.0595404,5228.82
0.0598742,5253.02
0.0603538,5281.72
0.0606906,5309.76
0.0610604,5336.11
0.0614507,5365.31
0.0616662,5393.71
0.0625523,5420.63
0.0626143,5450
0.0627591,5476.99
0.0632664,5505.73
0.0636574,5536.23
0.064149,5561.73
0.0646595,5591.31
0.0652198,5621.36
0.0653541,5647.4
0.0655851,5678.79
0.0661872,5708.35
0.0665876,5735.28
0.0667865,5763.68
0.0673338,5793.77
0.0676543,5821.14
0.067856,5847.81
0.0685225,5878.54
0.0687444,5908.14
0.0693036,5936.09
0.0696805,5966.89
0.0701773,5994.76
0.070601,6023.72
0.0709621,6051.82
0.07118,6081.28
0.0717757,6109.98
0.0723005,6140.71
0.0725176,6172.68
0.0729909,6199.28
0.0736427,6228.87
0.074206,6261
0.0744306,6287.01
0.0748906,6317.5
0.0752834,6349.57
0.0757339,6382.08
0.0762647,6408.97
0.076834,6442.16
0.0773496,6473.48
0.0776258,6501
0.0781846,6532.19
0.0785845,6564.45
0.0789988,6596.35
0.0796532,6624.88
0.0803134,6655.56
0.0804807,6686.78
0.0809934,6718.43
0.0816771,6747.76
0.0820803,6778.92
0.0826865,6811.69
0.0831996,6842.24
0.083511,6872.16
0.0839439,6902.83
0.0846099,6937.02
0.0850359,6967.3
0.0857717,6996.82
0.086291,7029.43
0.0865364,7060.83
0.0873137,7095.24
0.0878429,7124.56
0.0883293,7156.59
0.0889025,7191.62
0.0895806,7225.69
0.0899999,7255.82
0.0904889,7286.68
0.0911438,7319.01
0.0915832,7354.28
0.0923271,7387.82
0.0926629,7417.24
0.0934569,7450.58
0.0941145,7482.57
0.0948271,7514.12
0.0952796,7545.33
0.0956824,7576.77
0.0963694,7609.15
0.0968466,7644.12
0.0977259,7678.69
0.0980572,7707.23
0.098832,7737.65
0.0994198,7771.41
0.100299,7806.48
0.101108,7840.3
0.101526,7874.16
0.102123,7904.67
0.102769,7936.75
0.103357,7969.83
0.104029,8005.71
0.104908,8040.49
0.105547,8069.9
0.106014,8103.48
0.106931,8134.43
0.107585,8168.16
0.108088,8201.52
0.108704,8235.79
0.109777,8267.65
0.110199,8298.33
0.111187,8331.26
0.111691,8365.44
0.11262,8400.18
0.113061,8432.52
0.113825,8465.72
0.114536,8496.8
0.115472,8530.7
0.115929,8562.95
0.116733,8596.97
0.117526,8631.96
0.11831,8662.55
0.119123,8698.3
0.119823,8729.63
0.120806,8762.19
0.121647,8796
0.122458,8829.98
0.123348,8864.91
0.124161,8898.52
0.124901,8933.06
0.125662,8964.75
0.126487,8996.93
0.127582,9029.8
0.128344,9062.27
0.12918,9095.04
0.130281,9129.68
0.131107,9164.18
0.131909,9198.7
0.132778,9231.85
0.133765,9262.73
0.134733,9295.51
0.135624,9327.47
0.13653,9361.98
0.137574,9395.375
0.138524,9429.11
0.139627,9461.13
0.140361,9495.32
0.141524,9530.74
0.142367,9563.92
0.143419,9594.94
0.144173,9629.03
0.145297,9659.56
0.146328,9691.33
0.147423,9726.19
0.148508,9758.54
0.149381,9790.4
0.150356,9823.93
0.151607,9857.58
0.152694,9891.23
0.153833,9924.05
0.154984,9960.01
0.156406,9992.05
0.157541,10026
0.158337,10056.4
0.159545,10088.9
0.160809,10120.9
0.161743,10153.6
0.162909,10184.6
0.16404,10217.1
0.165282,10248.1
0.16654,10278.1
0.16779,10310.1
0.168988,10342.1
0.170331,10374.5
0.171502,10405.4
0.172832,10437.5
0.174047,10469.4
0.175521,10499.8
0.176822,10534
0.178267,10564
0.179416,10595.6
0.18068,10627.3
0.182259,10656.6
0.183504,10687.4
0.184737,10719.6
0.186205,10750.1
0.187603,10778.6
0.189268,10809.9
0.190535,10837.8
0.192141,10868.6
0.193535,10900.5
0.19492,10928.5
0.196578,10957.1
0.197863,10986.9
0.199441,11015.7
0.201031,11045.9
0.202565,11075.5
0.204171,11105
0.205422,11131.5
0.207275,11161.3
0.2089,11190.4
0.210628,11219.6
0.21238,11247.7
0.214113,11276.3
0.215661,11303.125
0.217321,11331.4
0.219008,11358.8
0.220623,11386.7
0.222446,11412.9
0.22423,11441.2
0.226015,11466.7
0.227797,11494.3
0.230704,11617.1
0.239109,11713
0.247513,11800.5
0.254784,11881.8
0.261968,11958.1
0.269071,12034.2
0.276208,12100.4
0.283561,12168.6
0.290749,12232.1
0.298503,12291.7
0.306434,12352.4
0.314675,12410
0.322895,12462.1
0.331287,12515.1
0.339861,12564.9
0.348847,12609.3
0.357996,12653.1
0.367396,12699.1
0.376674,12735.6
0.386672,12776.9
0.396539,12811.9
0.406655,12844.3
0.416932,12876.8
0.427221,12908.7
0.43802,12938.9
0.448502,12963.3
0.459189,12989.9
0.47023,13015.7
0.481448,13037.8
0.49256,13061.7
0.504379,13080.6
0.5154,13099.6
0.527156,13120.5
0.538761,13138.6
0.551009,13158
0.562734,13172.2
0.574552,13188.5
0.586979,13203.5
0.599436,13218.9
0.611772,13232.8
0.624227,13246.6
0.636552,13260.6
0.649437,13273.1
0.662132,13285
0.674728,13296
0.687702,13309.1
0.700487,13319.3
0.713073,13329.2
0.725967,13339.8
0.738706,13350.8
0.751905,13361.1
0.764674,13371.5
0.777987,13380
0.790941,13389.4
0.803986,13398.7
0.817294,13408
0.83044,13417.4
0.844022,13424.5
0.857186,13433
0.870785,13441.2
0.883862,13449.4
0.897188,13459.3
0.91094,13466.5
0.924342,13473.9
0.938052,13481.5
0.950975,13488.6
0.964409,13497.1
0.977976,13504.6
0.991324,13511.1
1.005,13518
1.01821,13525.9
1.0318,13531.6
1.04539,13539.2
1.05885,13546.6
1.07263,13551.1
1.08612,13558.4
1.09944,13564.3
1.11326,13571.6
1.12701,13578.3
1.1406,13584.4
1.15406,13589.1
1.16743,13595.3
1.18156,13604
1.19494,13607.6
1.20895,13614.1
1.22261,13619.5
1.23615,13625.2
1.24964,13632.4
1.27039,13638.2
1.29154,13641.6
1.31273,13648.3
1.33392,13654
1.35502,13660.5
1.37616,13664.3
1.3974,13672
1.41855,13675.5
1.43974,13681.8
1.46088,13688.3
1.48203,13690.7
1.50317,13696.9
1.52441,13702.7
1.54551,13706.1
1.5667,13710.7
1.58789,13717.2
1.60899,13721.8
1.63023,13727.9
1.65142,13733.3
1.67256,13735.8
1.69371,13740.6
1.7149,13748
1.73605,13749.9
1.75719,13755.7
1.77843,13760
1.79953,13764.1
1.82072,13768.6
1.84191,13775.3
1.86305,13778.6
1.88425,13781.5
1.90544,13786.2
1.92654,13791.1
1.94773,13794.1
1.96892,13801.8
1.99006,13802.2
2.0113,13808.8
2.03245,13814.5
2.05354,13817.2
2.07474,13820.7
2.09593,13827.7
2.11702,13828.5
2.13822,13832.9
2.15936,13839.3
2.18046,13841.8
2.20174,13846.9
2.22289,13851.5
2.24403,13854.7
2.26522,13858.5
2.28642,13863.6
2.30751,13865.2
2.32871,13869.8
2.34994,13875.1
2.37099,13877.5
2.39223,13880.3
2.41342,13887.1
2.43452,13888.9
2.45571,13891.8
2.47691,13897.6
2.49796,13899.3
2.51915,13904.1
2.54034,13907.4
2.56153,13911.9
2.58277,13913
2.60391,13919
2.62497,13922.3
2.6462,13925.4
2.66739,13929.9
2.68849,13932.3
2.70973,13933.7
2.73088,13940.9
2.75197,13941.7
2.77321,13946.8
2.7944,13950.2
2.8155,13952.9
2.83665,13956.9
2.85788,13960.7
2.87894,13963.7
2.90017,13966.1
2.92137,13969.5
2.94242,13974
2.96366,13977
2.98485,13981.3
3.00599,13983.3
3.02718,13984.9
3.04837,13989.6
3.06947,13993.6
3.09066,13996.5
3.1119,13998.6
3.13295,14001.4
3.15424,14004
3.17538,14007.8
3.19648,14013.8
3.21767,14014.5
3.23891,14016.8
3.25996,14021.5
3.28115,14024.1
3.3023,14026.7
3.32344,14030.2
3.34468,14032.2
3.36592,14035.6
3.38702,14040.1
3.40821,14042.1
3.42935,14043.4
3.45045,14046.9
3.47169,14050.8
3.49288,14052.6
3.51393,14056.5
3.53522,14060.3
3.55636,14061.9
3.57755,14065.4
3.5987,14069
3.61989,14070.2
3.64094,14072.8
3.66218,14078.3
3.68332,14078.2
3.70447,14081.4
3.72566,14084
3.74685,14086.6
3.76795,14091.8
3.78919,14093.2
3.81033,14094.7
3.83148,14096.8
3.85262,14101.6
3.87381,14103
3.89491,14105.5
3.9162,14109.3
3.93739,14110.1
3.95849,14114.2
3.97963,14118.5
4.00082,14119.3
4.02192,14122.9
4.04321,14124.4
4.0643,14126.9
4.08545,14129.8
4.10664,14132.8
4.12783,14133.1
4.14902,14137.7
4.17021,14140.1
4.19136,14140.6
4.21246,14144.6
4.23365,14148.7
4.25489,14149.7
4.27594,14151.4
4.29718,14154.6
4.31827,14157.5
4.33947,14160.5
4.36061,14164
4.38185,14164
4.40295,14165.7
4.42414,14171.5
4.44524,14171.1
4.46643,14173.9
4.48762,14177.7
4.50881,14175.5
4.52996,14182.1
4.55119,14183.25
4.57229,14185.3
4.59348,14186.3
4.61463,14190.9
4.63582,14192.1
4.65692,14193.6
4.67816,14198
4.6993,14198
4.72049,14201.3
4.74164,14206.2
4.76287,14206.1
4.78393,14208.2
4.80521,14212
4.82626,14211.3
4.8475,14214.1
4.86864,14217.6
4.88979,14219.3
4.91098,14220.8
4.93222,14225
4.95332,14225.6
4.97451,14226.7
4.99565,14232.4
5.0168,14233
5.03794,14234.6
5.05923,14238.6
5.08033,14238.5
5.10152,14240.7
5.12266,14243.6
5.14381,14246
5.16495,14246.6
5.18619,14250.7
5.20729,14251.9
5.22843,14252.8
5.24962,14257.25
5.27082,14256.4
5.29201,14258.8
5.3132,14261.9
5.3343,14263.6
5.35544,14265.7
5.37668,14268.5
5.39782,14269.4
5.41897,14269.4
5.44021,14274.8
5.46126,14277
5.4825,14278.7
5.50364,14281.3
5.52483,14282.8
5.54593,14283.1
5.56717,14288.4
5.58822,14289
5.60946,14288.3
5.63065,14290.9
5.6518,14294
5.67294,14295.3
5.69418,14297.6
5.71528,14299.8
5.73647,14300
5.75766,14302.9
5.7788,14304.5
5.79995,14305.8
5.82119,14309.5
5.84228,14310.4
5.86348,14310.9
5.88467,14314
5.90577,14317.5
5.92691,14316.7
5.9482,14320.8
5.96925,14322.8
5.99044,14321.6
6.01158,14324.6
6.03273,14326.6
6.05392,14329.1
6.07516,14329.5
6.0963,14331.8
6.11745,14333.7
6.13864,14334.4
6.15974,14338.5
6.18093,14338.5
6.20216,14340.4
6.22326,14342.8
6.24441,14344.3
6.26565,14347.2
6.28679,14349
6.30789,14348.7
6.32913,14350.2
6.35023,14352.8
6.37142,14354.7
6.39265,14356.7
6.4138,14357.8
6.43494,14358.6
6.45614,14359.1
6.47728,14365.6
6.49843,14363.9
6.51962,14365
6.54076,14367.4
6.56191,14368
6.5831,14369.8
6.60424,14372.4
6.62539,14374.1
6.64663,14374.8
6.66777,14379
6.68887,14380.3
6.71011,14380
6.73125,14383.7
6.75244,14382.3
6.77359,14383.9
6.79473,14387.1
6.81588,14388.7
6.83712,14388.7
6.85831,14392.6
6.8794,14392.8
6.90064,14393.6
6.92174,14396.8
6.94289,14398.6
6.96412,14397.9
6.98527,14400.4
7.00641,14401.2
7.02756,14403.5
7.04875,14406.9
7.06989,14407
7.09109,14406
7.11228,14408.4
7.13338,14411
7.15457,14411.1
7.17576,14414.4
7.1969,14414.8
7.21814,14414.5
7.23929,14418.4
7.26038,14419.3
7.28162,14420.4
7.30277,14422.6
7.32391,14423.4
7.3451,14424.7
7.36629,14427.5
7.38739,14428.7
7.40858,14428.2
7.42978,14431.7
7.45092,14433.6
7.47211,14432.9
7.49326,14435.4
7.5144,14436.2
7.53559,14436.1
7.55674,14440
7.57793,14439.9
7.59907,14441
7.62031,14443.5
7.64146,14443.6
7.66265,14444.2
7.68379,14445.9
7.70494,14450.1
7.72608,14448.4
7.74727,14450.4
7.76842,14451.9
7.78961,14451.2
7.8108,14455.3
7.8319,14457.2
7.85304,14456.8
7.87428,14457.8
7.89543,14458.2
7.91657,14458.4
7.93776,14460.8
7.95891,14462.6
7.9801,14462.3
8.00134,14464.3
8.02244,14465.375
8.04363,14467.6
8.06477,14469.3
8.08596,14468.6
8.10706,14470.1
8.1283,14470.8
8.14944,14474.8
8.17059,14474.1
8.19178,14475.4
8.21292,14477.9
8.23407,14477.9
8.25531,14479.9
8.27641,14481.7
8.29755,14481.9
8.31874,14482.4
8.33993,14483
8.36108,14484.9
8.38232,14485.8
8.40346,14489.3
8.42461,14489.6
8.4458,14489.3
8.46694,14491.7
8.48809,14492.1
8.50928,14493.3
8.53042,14494.2
8.55157,14495.4
8.57276,14496.8
8.59395,14498.5
8.6151,14500.3
8.63629,14499.2
8.65743,14501.3
8.67858,14503.1
8.69977,14502.2
8.72096,14504.1
8.74206,14506.1
8.7633,14505
8.78444,14508.1
8.80563,14507.9
8.82678,14510.1
8.84797,14510.5
8.86907,14511.7
8.8903,14512.7
8.9114,14512.8
8.93255,14515
8.95374,14515.8
8.97493,14517.6
8.99607,14521.2
9.01727,14519.9
9.03846,14519.7
9.0596,14522.1
9.0807,14522.7
9.10194,14523.2
9.12304,14526.3
9.14428,14526.8
9.16547,14526.6
9.18661,14529.8
9.20776,14530.2
9.22895,14529.5
9.25005,14533
9.27128,14533.2
9.29243,14535
9.31357,14536.7
9.33472,14538.8
9.35596,14537.1
9.37705,14540
9.39825,14541.3
9.41939,14541.75
9.44058,14543.5
9.46173,14544.7
9.48296,14544.4
9.50406,14545.8
9.52525,14546.7
9.54635,14548.9
9.56759,14551
9.58874,14551.1
9.60997,14549.8
9.63107,14551.8
9.65222,14553.3
9.67336,14550.7
9.69455,14554.8
9.71574,14552.6
9.73698,14551.9
9.75808,14553.1
9.77927,14553.9
9.80042,14552.7
9.82161,14551.9
9.84275,14550.8
9.8639,14549.9
9.88504,14551.7
9.90623,14552.2
9.92742,14550.9
9.94866,14554
9.96971,14553.4
9.99095,14553.1
10.0121,14557.8
10.0333,14556.1
10.0544,14555.8
10.0756,14558.5
10.0967,14560.6
10.1179,14561.5
10.1391,14563
10.1603,14564.8
10.1814,14564
10.2026,14566.6
10.2237,14567.7
10.2449,14567.5
10.2661,14571.8
10.2873,14570.9
10.3084,14571.4
10.3296,14575.1
10.3507,14575.9
10.3719,14576.4
10.3931,14577.8
10.4143,14580.8
10.4354,14579.8
10.4566,14581.3
10.4777,14583.3
10.4989,14582.1
10.5201,14585.4
10.5413,14587.1
10.5624,14585.7
10.5836,14587.6
10.6048,14588.8
10.6259,14588.7
10.6471,14590.5
10.6683,14591.5
10.6894,14591.4
10.7107,14593.2
10.7318,14593.3
10.753,14592.6
10.7741,14595.8
10.7953,14596.6
10.8164,14596.9
10.8376,14596.7
10.8588,14598.2
10.8799,14598.6
10.9011,14599.8
10.9223,14601
10.9434,14600.3
10.9646,14600.1
10.9858,14602.9
11.0069,14599.9
11.0281,14603.5
11.0493,14603.8
11.0704,14603.4
11.0916,14604.4
11.1128,14606.6
11.1339,14606.4
11.1551,14606.3
11.1763,14607.7
11.1974,14606.6
11.2186,14607.2
11.2397,14608.9
11.2609,14609.2
11.2821,14610.3
11.3033,14610.4
11.3244,14610.4
11.3456,14610.1
11.3668,14610.875
11.3879,14612.8
11.4091,14612.4
11.4303,14612.4
11.4514,14612.8
11.4727,14613.8
11.4938,14615.5
11.515,14615.4
11.5362,14614.8
11.5573,14616.2
11.5784,14615.9
11.5996,14617.9
11.6208,14616
11.6419,14617.3
11.6632,14617.9
11.6843,14617.6
11.7054,14619.9
11.7266,14618.1
11.7477,14620
11.7689,14619.3
11.7901,14620.4
11.8113,14619.2
11.8324,14620.3
11.8537,14621.3
11.8748,14619.2
11.8959,14621.9
11.9171,14622.2
11.9383,14621.9
11.9594,14623.3
11.9806,14623.5
12.0018,14621.9
12.0229,14623.7
12.0441,14625.1
12.0652,14624.2
12.0864,14626.6
12.1076,14625.2
12.1288,14623.4
12.1499,14625.9
12.1711,14627.1
12.1922,14624.2
12.2134,14625.4
12.2346,14625.5
12.2558,14625.8
12.277,14628.3
12.2981,14627
12.3193,14627.3
12.3404,14625.2
12.3616,14627.6
12.3827,14625.6
12.4039,14628
12.4251,14629.7
12.4462,14625.9
12.4674,14629
12.4886,14628.3
12.5097,14626.9
12.5309,14627.1
12.5521,14628.1
12.5732,14626.2
12.5944,14627.2
12.6156,14629.3
12.6368,14627
12.6579,14629
12.6791,14630.1
12.7003,14625
12.7214,14628.7
12.7426,14629.1
12.7637,14626.3
12.7849,14628.2
12.8061,14627
12.8272,14625.7
12.8484,14627
12.8696,14628.6
12.8908,14626.1
12.9119,14625.6
12.9331,14626.3
12.9542,14624.4
12.9754,14626.2
12.9966,14627.7
13.0178,14623.2
13.039,14626.2
13.0601,14627.5
13.0813,14624.3
13.1025,14625.8
13.1236,14625.6
13.1447,14622.1
13.1659,14624.8
13.1871,14625.4
13.2082,14622.3
13.2295,14623.3
13.2506,14625.3
13.2718,14620.6
13.2929,14621.9
13.3141,14622.6
13.3352,14619.7
13.3565,14620.8
13.3776,14621
13.3987,14619
13.42,14622.3
13.4411,14623.3
13.4623,14619.6
13.4835,14619.8
13.5046,14621.8
13.5257,14617.8
13.5469,14621
13.5681,14620.1
13.5892,14615.6
13.6104,14618.6
13.6316,14619.8
13.6527,14617.1
13.6739,14617.7
13.6951,14617.4
13.7162,14614.4
13.7375,14614.9
13.7585,14617.9
13.7797,14614
13.801,14614
13.8222,14613.4
13.8432,14612.1
13.8645,14613.375
13.8856,14614.9
13.9067,14611.9
13.9279,14610.7
13.9491,14611.4
13.9701,14608.8
13.9914,14612.1
14.0126,14610.3
14.0338,14607.1
14.0549,14607.3
14.0761,14606.9
14.0971,14605.2
14.1184,14605.5
14.1396,14605
14.1607,14602.6
14.182,14601
14.2031,14602.9
14.2242,14600
14.2455,14599.1
14.2666,14598.9
14.2877,14597.1
14.3089,14597
14.3301,14595.7
14.3512,14593.6
14.3725,14593.4
14.3936,14590.9
14.4147,14590.7
14.4359,14589.1
14.4572,14588.3
14.4782,14586.2
14.4995,14584.7
14.5206,14584.9
14.5417,14583.4
14.563,14581.2
14.5842,14579.9
14.6052,14578.1
14.6265,14577.6
14.6477,14575.9
14.6688,14574.5
14.6899,14569.1
14.7111,14569.8
14.7321,14566.5
14.7535,14565.9
14.7746,14564.4
14.7958,14561.7
14.817,14559.5
14.8382,14558.8
14.8592,14555.4
14.8805,14553.4
14.9016,14551.4
14.9227,14550.3
14.944,14547.3
14.9652,14544.3
14.9863,14544.2
15.0075,14537.9
15.0286,14537.2
15.0498,14533.3
15.071,14530.9
15.0921,14529.2
15.1132,14524.9
15.1345,14523.1
15.1557,14518.2
15.1768,14515.9
15.198,14513.3
15.2192,14508.8
15.2402,14507.9
15.2615,14503.1
15.2826,14499.6
15.3037,14495.7
15.3249,14492.6
15.3461,14489
15.3672,14484.9
15.3885,14482.6
15.4097,14476.3
15.4307,14473.4
15.4519,14469.9
15.4731,14464.9
15.4942,14460.4
15.5155,14456.1
15.5366,14451.4
15.5578,14447.8
15.579,14444.4
15.6001,14437.7
15.6212,14430.5
15.6425,14428.9
15.6636,14421.8
15.6847,14417.4
15.7059,14412.5
15.7272,14404.6
15.7483,14400.2
15.7695,14394.7
15.7906,14388.6
15.8117,14384.4
15.8329,14378.4
15.8541,14370
15.8752,14362.9
15.8965,14359.1
15.9176,14350.5
15.9388,14344.4
15.9599,14338.2
15.9811,14328
16.0022,14323.6
16.0235,14317.5
16.0446,14308.3
16.0658,14299.6
16.087,14293.1
16.1081,14284.5
16.1293,14277.6
16.1504,14269.3
16.1716,14258.1
16.1928,14250.1
16.214,14242.7
16.2351,14230.5
16.2562,14223
16.2775,14214
16.2986,14201.7
16.3198,14192.8
16.341,14183
16.3621,14171.7
16.3833,14158.9
16.4045,14149.8
16.4256,14136.8
16.4468,14125.6
16.468,14116.7
16.4891,14099.7
16.5104,14090.2
16.5315,14078.1
16.5526,14063.1
16.5738,14049.5
16.595,14036
16.6161,14018.3
16.6373,14003.7
16.6586,13989.4
16.6796,13973.3
16.7008,13956.5
16.722,13941.8
16.7432,13921.2
16.7644,13903.7
16.7856,13887.1
16.8067,13867.5
16.8279,13847.3
16.8491,13826.1
16.8702,13803.2
16.8914,13783.2
16.9126,13761.7
16.9337,13738
16.9549,13711.6
16.9761,13687.8
16.9972,13660.6
17.0183,13633.4
17.0395,13607.4
17.0607,13574.7
17.0819,13546.5
17.1031,13514.4
17.1242,13481.4
17.1454,13447.2
17.1666,13410.2
17.1877,13373
17.209,13333.8
17.2302,13295.2
17.2513,13250.7
17.2725,13206.7
17.2937,13160.8
17.3148,13113.2
17.336,13063.4
17.3572,13012.3
17.3783,12955.3
17.3995,12898.3
17.4207,12838.2
17.4418,12776.6
17.4631,12710.8
17.4842,12643.5
17.5054,12572.4
17.5266,12494
17.5478,12415.9
17.5689,12329.2
17.59,12234.6
17.6113,12112.1
17.6324,11905.3
17.6478,-4894.45