File: data/PrimaryData/Brass/Tensile_002.csv
Displacement (mm),Load (N)
2.70396e-05,0.667243
7.12438e-06,0.976722
0.000121956,1.10484
0.000193927,0.634862
0.000189767,1.38285
3.35528e-06,0.286298
6.65198e-05,0.482808
0.000312985,1.24588
0.000177885,0.862005
-3.93016e-05,0.853726
0.000161203,1.55344
1.5645e-05,0.377345
-7.09822e-05,0.734604
9.44791e-05,1.98515
0.000237942,2.87462
0.00012742,2.79573
0.00026133,3.77881
8.09754e-05,3.37048
0.00048787,4.53636
0.000121525,5.41195
0.000332389,6.57357
0.000126067,8.54992
0.000271722,10.4018
0.000278315,10.7756
0.000336333,11.5237
0.000473617,12.18
0.000276924,11.6169
0.000511785,11.878
0.000467149,10.6833
0.000212883,11.7857
0.00026903,11.2189
0.000409412,12.353
0.000271984,12.5948
0.000463138,13.4344
0.000638774,17.2335
0.000513903,18.3801
0.000400475,21.3591
0.000383093,23.9712
0.000470364,28.0793
0.000514533,30.3036
0.00039275,32.7886
0.000848663,33.5473
0.00057606,35.3608
0.000666038,38.8176
0.000560854,43.3519
0.000824299,47.5633
0.000828606,52.5694
0.000761879,56.8329
0.000795669,63.4406
0.00102998,69.1285
0.000895438,74.3462
0.000995821,80.3504
0.0012636,89.0797
0.00125583,95.4314
0.00122307,102.493
0.00134675,108.472
0.00119354,114.744
0.0013588,122.502
0.00161305,129.344
0.00159319,137.544
0.0017562,143.398
0.00175696,151.197
0.00189498,158.89
0.00222292,166.154
0.00183893,174.114
0.00202146,181.626
0.00217096,188.907
0.00225535,198.013
0.00228347,205.516
0.00240977,211.268
0.00252665,216.998
0.0026025,224.135
0.00245485,230.253
0.00269808,237.668
0.00274809,245.182
0.00295257,252.852
0.00291399,262.598
0.00284212,270.814
0.00314188,282.723
0.00325609,289.273
0.00355941,297.883
0.00364731,304.712
0.00351125,310.031
0.00369804,315.852
0.00359731,322.639
0.0037507,328.661
0.00356349,335.084
0.0037912,341.431
0.00385782,346.157
0.00398255,352.56
0.00364508,353.684
0.00397127,354.307
0.00380955,353.822
0.003963,355.467
0.00386561,359.352
0.00417866,362.024
0.00413468,365.899
0.00396383,372.357
0.00426012,380.169
0.00412602,385.072
0.00423316,391.265
0.00437523,397.067
0.0043649,401.56
0.00433363,405.174
0.00467661,409.51
0.00454506,411.074
0.00439028,403.144
0.00422569,403.168
0.00458482,411.092
0.00460197,419.263
0.00460277,428.148
0.00455469,435.549
0.00459068,443.53
0.00479776,450.959
0.00504498,458.526
0.00485803,466.989
0.0048976,474.744
0.0050308,480.059
0.005144,484.333
0.00504761,491.906
0.00547625,499.067
0.00550903,507.332
0.00547923,516.824
0.0054729,524.249
0.00537487,530.989
0.00578642,536.999
0.00585377,544.701
0.00599233,551.506
0.00594465,561.996
0.00597721,570.601
0.00608885,577.757
0.00606216,584.798
0.00612192,591.427
0.00613468,599.632
0.00658826,609.134
0.00636138,618.361
0.00650255,627.332
0.00683094,634.523
0.00661783,642.535
0.00706565,649.217
0.00696952,659.029
0.00725535,670.12
0.00705255,679.346
0.00739549,688.104
0.00732287,695.499
0.00720329,704.705
0.0074549,715.383
0.00748372,727.088
0.00748155,736.097
0.0078068,743.009
0.00781443,752.558
0.00807189,763.627
0.00810596,774.073
0.00828457,784.654
0.00824793,793.498
0.00824616,802.579
0.00843004,811.999
0.00857064,824.703
0.00867437,836.319
0.00887659,846.091
0.00868606,854.314
0.00908119,866.412
0.00925821,878.434
0.00919571,889.904
0.00920772,899.219
0.00937789,907.52
0.009524,920.022
0.00942545,932.516
0.00958541,944.446
0.00985074,953.921
0.00982837,964.368
0.00994396,977.297
0.0103187,990.305
0.0104715,1001.75
0.0104812,1012.09
0.0104571,1023.83
0.010747,1037.38
0.0107819,1050.61
0.0108638,1061.61
0.0113782,1071.41
0.011392,1084.86
0.0111785,1100.15
0.0115496,1111.53
0.0117296,1121.96
0.0116893,1135.04
0.0121397,1150.15
0.0120883,1161.65
0.012021,1172.89
0.0124064,1185.47
0.0124213,1201.29
0.0126475,1214.57
0.0126546,1225.71
0.0129933,1238.03
0.0130118,1255.4
0.0131884,1267.97
0.013403,1278.73
0.0133445,1293.05
0.0136719,1309.25
0.0138173,1322.55
0.0138231,1334.89
0.0139819,1350.33
0.0143002,1365.54
0.0144058,1379.75
0.0145603,1391.1
0.0144499,1407.26
0.0147856,1422.95
0.014898,1434.66
0.0149793,1447.51
0.0152683,1466.71
0.0155088,1481.14
0.0153176,1492.79
0.0154635,1508.18
0.0160694,1526.34
0.0159992,1539.3
0.0161233,1552.6
0.0163388,1569.79
0.0164999,1585.98
0.0167732,1598.93
0.0167075,1613.69
0.017159,1631.48
0.0172731,1643.85
0.0170605,1657.85
0.0172979,1675.05
0.0176034,1691.02
0.0178043,1702.39
0.0179075,1719.66
0.0181018,1735.8
0.0183596,1750.62
0.0182885,1764.1
0.0184362,1781.72
0.0185433,1794.96
0.0188277,1809.36
0.0189786,1828.4
0.0189862,1842.6
0.0192481,1854.63
0.0195618,1873.4
0.0197763,1887.56
0.0196648,1901.07
0.0196667,1918.05
0.019977,1933.19
0.0201306,1946.54
0.0202501,1961.86
0.0204198,1977.69
0.0206187,1988.86
0.0207239,2005.12
0.0210867,2021.87
0.0208952,2033.53
0.0211747,2050.42
0.0214059,2063.7
0.0215595,2074.67
0.0216178,2093.12
0.0217076,2104.18
0.0220831,2117.2
0.0222052,2134.26
0.022333,2145.34
0.0224322,2158.99
0.0228243,2177.13
0.022452,2187.6
0.0229547,2201.7
0.0231306,2217.67
0.0230323,2226.74
0.0233497,2242.86
0.0233799,2256.55
0.023333,2267.19
0.023719,2284.12
0.0237991,2296.93
0.0241134,2308.75
0.0242366,2323.93
0.0242435,2334.68
0.0244761,2351.69
0.0246841,2364.54
0.0247108,2376.14
0.024972,2393.1
0.0247978,2403.13
0.0251691,2419.95
0.0253331,2432.02
0.0254632,2442.7
0.0256775,2458.4
0.0255359,2468.9
0.0255298,2484.94
0.0257587,2499.59
0.0260991,2510.15
0.0260187,2525.49
0.0262946,2536.2
0.0264416,2551.94
0.0266629,2567.13
0.0269499,2578.91
0.027089,2595.97
0.0271854,2606.79
0.0272773,2624.25
0.0275092,2636.94
0.0276715,2648.99
0.0276265,2666.53
0.0278945,2677.07
0.0279876,2694.33
0.0281574,2706.94
0.0283877,2723.41
0.0285993,2737.01
0.0284638,2751.04
0.0288839,2768.09
0.0288907,2778.86
0.0292465,2798.34
0.0293092,2810.66
0.0296175,2828.6
0.0294222,2839.79
0.0295663,2855.18
0.0299788,2870.93
0.0301017,2886.54
0.0303352,2904.43
0.0304127,2914.89
0.0306534,2933.8
0.0306646,2947.24
0.0308786,2966.7
0.0309037,2978.45
0.0309441,2996.04
0.031282,3009.92
0.0316323,3029.87
0.0317632,3042.09
0.0320692,3059.74
0.0322121,3073.42
0.0323711,3092.26
0.0324651,3106.65
0.0324189,3124.71
0.0324973,3138.65
0.0330137,3156.47
0.0332219,3173.24
0.0334231,3189.22
0.0332391,3206.09
0.0335424,3222.1
0.0339879,3239.53
0.0339596,3256.58
0.0343906,3274.83
0.0345003,3288.8
0.034306,3306.68
0.0347225,3324.56
0.0349668,3341.53
0.035146,3359.11
0.0355246,3376.62
0.0354814,3394.08
0.0357621,3411.3
0.0361502,3431.72
0.0366096,3483.93
0.0363474,3475.46
0.0362051,3488.56
0.036653,3506.35
0.0369712,3522.83
0.0372251,3543.14
0.0373341,3561.49
0.0375552,3579.95
0.0377685,3598.45
0.0379753,3616.22
0.0381192,3636.53
0.0381747,3651.86
0.0382704,3670.97
0.0387509,3689.01
0.0390629,3710.73
0.0391103,3727.24
0.0393417,3746.16
0.0394188,3765.96
0.0398201,3785.16
0.0400645,3805.65
0.0402279,3821.25
0.0404404,3843.35
0.0405976,3861.48
0.0410817,3882.47
0.0410181,3900.9
0.041339,3920.37
0.0415495,3942.93
0.0416535,3959.17
0.0420901,3981.36
0.0419701,3999.43
0.0424463,4020.35
0.0425353,4041.39
0.042825,4059.65
0.0431518,4082.38
0.0433543,4102.35
0.0433629,4122.16
0.0436829,4144.66
0.0436832,4163.87
0.0442579,4186.97
0.0443913,4203.48
0.0444711,4226.05
0.0446994,4248.81
0.0448763,4266.66
0.0452492,4290.54
0.0454746,4310.74
0.0455395,4331.23
0.0457814,4353.35
0.0462142,4372.88
0.0463302,4396.31
0.0464772,4417.49
0.04679,4436.9
0.0469871,4462.65
0.0471944,4484.03
0.0476811,4503.96
0.0476448,4529.89
0.048006,4548.75
0.0481458,4570.95
0.04851,4595.75
0.0487307,4615.91
0.0488939,4638.96
0.0493163,4662.06
0.0495459,4685.59
0.0498461,4709.77
0.0500044,4731.38
0.0503875,4753.3
0.0506362,4779.92
0.0506592,4802.65
0.0511411,4821.81
0.0515271,4848.99
0.0514334,4872.87
0.0518732,4892.2
0.0519232,4920.59
0.0524635,4945.1
0.0523674,4965.84
0.0528081,4991.16
0.0533037,5015.25
0.0533945,5037.43
0.0537649,5061.4
0.0539463,5088.07
0.0541044,5110.18
0.0545527,5134.17
0.054953,5161.03
0.0549528,5183.68
0.0553491,5206.25
0.0557299,5233.03
0.0560876,5258.06
0.0562218,5280
0.056648,5306.87
0.0566802,5334.61
0.0569778,5355.88
0.0574276,5381.44
0.057558,5408.03
0.0578829,5432.15
0.0582275,5456.44
0.0584352,5483.35
0.0589884,5511.15
0.0591377,5534.54
0.0592697,5559.18
0.059769,5584.4
0.0601328,5610.9
0.0604415,5637.14
0.0605727,5659.92
0.0611633,5690.01
0.0613097,5716.63
0.0614603,5739.5
0.0618267,5765.37
0.0620741,5792.76
0.0623478,5819.17
0.0627806,5845.42
0.0629721,5870.38
0.06311,5897.21
0.0636973,5925.65
0.0638541,5953.84
0.0641084,5977.83
0.0644587,6006.04
0.064809,6033.92
0.0650578,6062.52
0.0653627,6088.93
0.0656491,6114.66
0.0662347,6141.92
0.0664064,6171.12
0.0667741,6198.18
0.0671188,6224.03
0.0675415,6250.97
0.0675827,6278.95
0.0678347,6307.24
0.0682491,6336.03
0.0686305,6360.81
0.0689436,6388.88
0.0693262,6418.49
0.0697586,6448.2
0.0697882,6477.08
0.070384,6503.1
0.0707166,6531.66
0.0711464,6560.54
0.0713112,6589.89
0.0718106,6620.53
0.072344,6651.69
0.0725127,6680.21
0.0729553,6710.14
0.0733497,6739.8
0.0736715,6770.13
0.0741178,6799.75
0.0742953,6826.96
0.0747169,6857.5
0.075038,6885.99
0.0755449,6916.06
0.0757838,6946.1
0.0761715,6975.94
0.0766293,7005.78
0.0771328,7035.94
0.0773322,7064.54
0.0777299,7093.71
0.0781931,7125.01
0.0784958,7155.56
0.0790907,7188.29
0.0794223,7217.82
0.0797957,7249.84
0.0801444,7279.81
0.0805245,7308.62
0.0810411,7339.84
0.0811612,7371.48
0.0817196,7400.93
0.0820935,7434.87
0.0825796,7466.49
0.0830111,7497.96
0.0834001,7528.04
0.0835724,7559.31
0.0842761,7588.04
0.0845862,7618.43
0.0850003,7652.19
0.0854004,7681.31
0.0859966,7713.16
0.0864449,7746.24
0.086816,7777.92
0.0872281,7813.38
0.0875958,7843.06
0.0879961,7877.59
0.0883882,7909.61
0.0888721,7940.88
0.0894661,7971.59
0.0897154,8002.61
0.090186,8035.79
0.090479,8068.33
0.0910124,8100.64
0.0915935,8133
0.0918467,8167.24
0.0924732,8198.59
0.0929779,8232.11
0.0930927,8267.22
0.0938272,8299.93
0.0942681,8334.92
0.0950119,8366.41
0.0951193,8400.73
0.0956068,8436.43
0.0963422,8468.36
0.0967249,8503
0.0969955,8535.52
0.097907,8570.48
0.0983889,8603.67
0.0988681,8640.05
0.0993096,8672.52
0.0995945,8705.8
0.100396,8739.75
0.100556,8773.84
0.101411,8809.21
0.101946,8841.78
0.102489,8877.5
0.102606,8910.43
0.103388,8944.84
0.103757,8978.18
0.104438,9014.02
0.104624,9047.71
0.105612,9082.29
0.106308,9117.27
0.106584,9152.72
0.107124,9190.02
0.107656,9225.52
0.108447,9260.63
0.108833,9296.19
0.109673,9331.88
0.110038,9366.41
0.110841,9403.07
0.111289,9437.8
0.111692,9474.53
0.112429,9509
0.1131,9543.27
0.113463,9579.6
0.114274,9614.91
0.114812,9650.86
0.115567,9686.68
0.115952,9721.73
0.116634,9756.29
0.117022,9794.56
0.117937,9829.59
0.118549,9865.63
0.119374,9900.59
0.119784,9937.18
0.120395,9972.66
0.121252,10011.7
0.121564,10046
0.122401,10082.9
0.123222,10116.4
0.123894,10154.3
0.124362,10190.2
0.125105,10226.7
0.125511,10261
0.126269,10299
0.127399,10336
0.127866,10374.7
0.128705,10413.3
0.129091,10449.5
0.130244,10487
0.130687,10522.8
0.131461,10558.4
0.132221,10595
0.133043,10630.1
0.133623,10667.4
0.133576,10637.5
0.137737,10920.4
0.140642,11049.1
0.143165,11156.5
0.145512,11258.4
0.147697,11360.6
0.149933,11467.4
0.152688,11568.5
0.154935,11676.4
0.157653,11782.2
0.160035,11884.8
0.162873,11986.5
0.165597,12090.5
0.168469,12193.4
0.171164,12296.6
0.173983,12400.9
0.177092,12499.4
0.180144,12601.9
0.183188,12704.4
0.186596,12803
0.189712,12903.4
0.193012,13002.6
0.196466,13098.7
0.199885,13193.3
0.203176,13290.6
0.207081,13384.9
0.210728,13479.5
0.214537,13572.4
0.218518,13663.8
0.222362,13753.6
0.226482,13844.4
0.230702,13932.5
0.234911,14018.3
0.239496,14104.1
0.243899,14186.6
0.248544,14271.6
0.253397,14353.2
0.258211,14434.6
0.263406,14510.9
0.268821,14587.7
0.274106,14664.2
0.280073,14736.5
0.285974,14808.5
0.292132,14878.4
0.298,14945.2
0.304433,15010.6
0.311157,15074.8
0.318216,15135.1
0.325316,15192.8
0.332534,15246.4
0.339591,15301.9
0.347696,15351.6
0.355461,15402
0.363529,15448.1
0.371885,15493.4
0.380735,15535.9
0.389635,15576.9
0.39852,15614.5
0.408036,15651.2
0.417323,15685.4
0.427036,15717.1
0.437004,15748.4
0.447041,15779.3
0.457643,15804.8
0.468302,15834.3
0.478971,15858
0.489532,15879.6
0.500499,15904.2
0.511747,15924.4
0.523019,15943.9
0.534545,15963
0.545888,15981.3
0.557608,15998.1
0.56963,16015.9
0.581613,16033.2
0.593921,16045
0.60606,16060.7
0.618372,16075.7
0.630797,16086.5
0.643394,16100.6
0.656256,16113.1
0.668787,16123.1
0.681575,16137.2
0.694531,16148.6
0.707427,16157.4
0.720787,16167.2
0.733714,16178.7
0.746643,16186.3
0.759923,16197.2
0.773101,16208.4
0.786465,16215
0.800133,16226
0.8132,16234.1
0.826729,16241.3
0.840385,16250.4
0.853925,16259.7
0.86763,16266.2
0.881197,16273
0.894933,16282
0.908668,16288.3
0.922316,16297.9
0.936109,16306.2
0.949819,16308.7
0.96356,16317.7
0.977228,16325.6
0.990924,16331.1
1.00501,16337.7
1.01864,16345.5
1.03247,16349.5
1.04634,16356.8
1.06018,16365.8
1.07412,16370.4
1.08816,16374
1.1024,16382.6
1.116,16387.8
1.1298,16393.5
1.14392,16400.7
1.158,16405.4
1.17193,16411.7
1.18603,16418.3
1.19971,16422.7
1.21369,16426.8
1.2278,16436
1.24148,16439.7
1.25823,16444.7
1.27947,16452.1
1.30057,16454.6
1.32176,16461.4
1.34295,16467.9
1.36414,16471.8
1.38524,16474
1.40643,16482.7
1.42753,16486.7
1.44872,16489.2
1.46991,16496.4
1.49111,16499.9
1.51225,16505.3
1.53349,16512.6
1.55459,16515.7
1.57573,16518.2
1.59697,16525.1
1.61807,16529.3
1.63921,16533.3
1.6605,16539.5
1.68159,16544.4
1.70279,16545.9
1.72393,16550.9
1.74512,16558
1.76622,16560.7
1.78751,16564.6
1.8086,16569.9
1.82979,16571.9
1.85094,16577.2
1.87204,16581.9
1.89323,16587
1.91451,16589.1
1.93561,16593.9
1.95676,16596.9
1.97799,16602.4
1.99909,16607.2
2.02024,16607.6
2.04148,16613.8
2.06262,16618
2.08377,16622.2
2.10496,16626.7
2.1261,16632.2
2.1472,16632
2.16848,16636.2
2.18949,16641.7
2.21068,16644
2.23187,16648.7
2.25306,16652.9
2.27425,16653
2.29549,16657.5
2.31659,16663.9
2.33769,16665.7
2.35897,16669.5
2.38012,16674.8
2.40122,16675.6
2.42245,16680.1
2.44351,16685.1
2.46474,16687.9
2.48594,16690.3
2.50708,16695.8
2.52818,16697.3
2.54942,16701.5
2.57052,16705.7
2.59171,16707.2
2.6129,16711.6
2.63404,16714.8
2.65523,16718.3
2.67647,16720.9
2.69757,16726.1
2.71872,16728.6
2.73995,16729.4
2.76105,16736.4
2.7822,16738
2.80339,16739.6
2.82458,16745.4
2.84572,16746.6
2.86696,16747.3
2.88806,16753.9
2.9092,16757.5
2.93044,16758.6
2.95154,16763.4
2.97269,16766.7
2.99388,16767.2
3.01502,16772.2
3.03621,16774.5
3.0574,16774.9
3.0786,16780.2
3.09974,16782.8
3.12093,16785.7
3.14208,16788.7
3.16322,16792.8
3.18441,16792.8
3.20556,16797.8
3.2267,16802
3.24789,16801.6
3.26909,16807.7
3.29023,16810.5
3.31142,16811.5
3.33257,16815.7
3.35371,16816.4
3.37486,16818.9
3.39605,16821.7
3.41719,16824.5
3.43838,16827
3.45958,16830.9
3.48072,16833.9
3.50196,16834.1
3.52306,16837.8
3.54425,16840
3.56535,16842.6
3.58654,16845.9
3.60773,16849.9
3.62887,16848.9
3.65011,16854.6
3.67121,16858.2
3.69236,16858.3
3.71355,16861.2
3.73469,16863.9
3.75588,16864.5
3.77703,16868
3.79817,16871.7
3.81936,16872.3
3.8406,16876.5
3.8617,16878.7
3.88289,16881.2
3.90404,16883.1
3.92523,16887.2
3.94633,16888.7
3.96756,16890.1
3.98871,16894.6
4.00985,16894.3
4.03109,16898.7
4.05219,16902.6
4.07338,16900.8
4.09457,16906
4.11572,16907.1
4.13681,16909.2
4.15801,16911
4.1792,16913.6
4.20034,16914.7
4.22163,16917
4.24268,16922.3
4.26387,16923
4.28506,16925.1
4.30625,16927.4
4.32735,16928.3
4.34859,16931.5
4.36969,16933.8
4.39083,16934.8
4.41202,16936.7
4.43321,16939.9
4.45436,16943.8
4.47555,16944.7
4.4967,16947.6
4.51789,16948
4.53903,16950.4
4.56022,16951.9
4.58132,16954.4
4.60256,16956.9
4.6237,16959.3
4.6449,16961.1
4.66609,16961.5
4.68728,16965
4.70833,16967.9
4.72957,16968.9
4.75071,16971.8
4.77186,16973.1
4.7931,16975.5
4.81424,16978.4
4.83534,16979
4.85653,16980.5
4.87772,16983.4
4.89887,16984.2
4.92001,16987.6
4.9412,16987.1
4.96235,16991.8
4.98363,16991.1
5.00473,16994.3
5.02587,16997.9
5.04702,16998
5.06826,17001.5
5.08936,17002.6
5.11059,17003.8
5.13174,17006.4
5.15288,17007.2
5.17403,17011.2
5.19527,17012
5.21636,17015
5.23756,17013.4
5.2587,17016.6
5.27985,17019.1
5.30099,17019.9
5.32223,17022.3
5.34337,17024
5.36461,17026.7
5.38571,17026.6
5.4069,17030
5.42805,17031.9
5.44928,17030.2
5.47038,17034.7
5.49157,17035.4
5.51267,17037.3
5.53386,17040.7
5.55506,17041.9
5.57625,17042.8
5.59739,17044.9
5.61854,17046.5
5.63973,17048
5.66092,17049.8
5.68206,17051.1
5.70325,17051.2
5.72435,17055
5.74554,17058
5.76669,17056.9
5.78793,17060.2
5.80907,17060.9
5.83026,17062.9
5.85136,17063.7
5.87255,17066.1
5.8937,17066.4
5.91489,17070.2
5.93603,17072.4
5.95723,17071.2
5.97837,17075.8
5.99956,17075.6
6.02075,17076.2
6.04194,17079.3
6.06304,17079.5
6.08423,17081.7
6.10538,17083.1
6.12662,17086.2
6.14771,17085.6
6.16895,17088.3
6.19,17091
6.21129,17090.6
6.23239,17092.6
6.25358,17095.1
6.27468,17093.4
6.29587,17097.9
6.31701,17099.7
6.33825,17098.4
6.3594,17101.4
6.38059,17103.4
6.40169,17103.6
6.42288,17104.6
6.44402,17107.4
6.46521,17106.9
6.4864,17108.5
6.50755,17112.1
6.52865,17110
6.54988,17114.6
6.57098,17114.6
6.59222,17115.8
6.61332,17118.7
6.63451,17119.5
6.65561,17119.6
6.67685,17122.1
6.69799,17124.9
6.71918,17122.4
6.74037,17125.6
6.76147,17127.5
6.78266,17127.6
6.80386,17129.1
6.825,17130.3
6.84615,17131.8
6.86734,17133.8
6.88853,17134.7
6.90963,17134.2
6.93091,17136.1
6.95201,17139.3
6.9732,17139.7
6.99435,17140.3
7.01554,17141.8
7.03664,17140.8
7.05787,17144.7
7.07897,17148.2
7.10012,17147
7.12135,17150.9
7.1425,17149.5
7.16364,17151.2
7.18488,17150.7
7.20598,17152.9
7.22713,17153.1
7.24836,17155.4
7.26951,17156.2
7.2907,17156.7
7.31194,17161.1
7.33304,17161.4
7.35423,17159.6
7.37542,17162.3
7.39656,17161.8
7.41766,17165.3
7.43885,17166.7
7.46,17167.9
7.48114,17168.3
7.50243,17170.1
7.52352,17171.5
7.54467,17171.8
7.56586,17171.3
7.58701,17173.4
7.6082,17173.5
7.62939,17175.9
7.65053,17176.1
7.67168,17177.7
7.69296,17179.6
7.71406,17179.8
7.73521,17180.6
7.7564,17182.7
7.77754,17183.9
7.79869,17185.4
7.81988,17185.2
7.84102,17186.8
7.86217,17187.7
7.88336,17190.2
7.9045,17189.9
7.9257,17191.9
7.94689,17192.1
7.96803,17191.6
7.98913,17193.5
8.01037,17193.9
8.03151,17196.2
8.05266,17196.8
8.0739,17196.7
8.09504,17198.6
8.11623,17201.2
8.13738,17201.6
8.15857,17200.5
8.17971,17202.8
8.2009,17203
8.222,17204.4
8.24315,17207.5
8.26439,17207.7
8.28553,17207.5
8.30667,17209.8
8.32787,17209.5
8.34901,17210.2
8.37016,17210
8.39139,17212.6
8.41254,17209.8
8.43368,17213.6
8.45488,17214.7
8.47602,17214.9
8.49721,17217.6
8.51845,17217.4
8.53955,17215.8
8.56069,17218.9
8.58184,17220.1
8.60298,17220
8.62417,17220.9
8.64541,17221.9
8.66651,17221.4
8.6877,17226.4
8.70885,17226.7
8.73004,17224.2
8.75118,17226.8
8.77242,17226
8.79342,17225.8
8.81462,17230
8.83585,17229
8.857,17227.8
8.87824,17231
8.89933,17231.1
8.92048,17231.1
8.94167,17234
8.96286,17234.6
8.98401,17231.3
9.00515,17235
9.02634,17237.5
9.04744,17235.7
9.06868,17239.7
9.08987,17238.9
9.11102,17236.9
9.13216,17239
9.15335,17242.9
9.17445,17239.1
9.19569,17240.1
9.21688,17243
9.23798,17241.1
9.25917,17245.6
9.28031,17246.7
9.30146,17243.9
9.3227,17246.1
9.34384,17247.6
9.36494,17247.5
9.38613,17248.1
9.40737,17251
9.42842,17246.8
9.44971,17249.9
9.4708,17252.8
9.492,17249.9
9.51314,17251.9
9.53438,17252.7
9.55548,17251.1
9.57667,17253.1
9.59786,17254.7
9.61896,17255.2
9.6402,17255.5
9.66139,17257.4
9.68249,17254.9
9.70368,17256.8
9.72482,17261.2
9.74597,17257.4
9.7672,17259.5
9.78835,17260.1
9.8094,17258.1
9.83068,17262.8
9.85183,17262.3
9.87297,17260.3
9.89417,17262.1
9.9154,17264.1
9.93641,17263.2
9.95765,17263.7
9.97879,17267
9.99998,17263.3
10.0212,17266.4
10.0424,17268.4
10.0635,17265.7
10.0847,17267.1
10.1058,17268.7
10.1269,17267.6
10.1481,17269.2
10.1694,17271.2
10.1904,17271.4
10.2118,17270.4
10.2329,17271.2
10.254,17271.1
10.2751,17272
10.2964,17274.4
10.3174,17271.7
10.3387,17272.8
10.3599,17275
10.381,17273.5
10.4022,17274.7
10.4234,17275.9
10.4445,17274.9
10.4657,17275.1
10.4869,17278.1
10.508,17277.1
10.5292,17278.1
10.5504,17279.7
10.5715,17276.9
10.5927,17279.4
10.6139,17279.8
10.635,17280.5
10.6562,17280.2
10.6774,17281.9
10.6985,17280.4
10.7197,17279.9
10.7408,17282.4
10.7619,17282.4
10.7832,17281.7
10.8044,17284.2
10.8255,17283.6
10.8467,17284.6
10.8679,17283.6
10.889,17284.6
10.9102,17284.6
10.9314,17283
10.9524,17285.1
10.9737,17285.8
10.9948,17285.6
11.016,17286.3
11.0372,17284.5
11.0583,17287.3
11.0794,17286.5
11.1007,17286.2
11.1218,17286.2
11.143,17285.4
11.1642,17287.1
11.1854,17286.2
11.2064,17289.1
11.2277,17287.5
11.2489,17287.3
11.27,17286.3
11.2912,17286.2
11.3124,17289.3
11.3335,17287.2
11.3547,17288.1
11.3759,17287.6
11.397,17287.6
11.4182,17288.6
11.4394,17287.4
11.4605,17287.7
11.4817,17287.7
11.5029,17287.1
11.524,17289.4
11.5452,17288.7
11.5664,17289.3
11.5876,17290
11.6087,17287.8
11.6299,17290.1
11.651,17291.9
11.6722,17291
11.6934,17289.9
11.7145,17291.4
11.7357,17291.8
11.7569,17291.4
11.778,17292.8
11.7992,17292
11.8204,17290.2
11.8415,17292.6
11.8627,17293.6
11.8838,17291.9
11.905,17291.5
11.9262,17293.5
11.9474,17289.1
11.9685,17293.1
11.9897,17293.9
12.0108,17291.7
12.032,17293.2
12.0532,17292.8
12.0743,17291.3
12.0954,17293.7
12.1167,17293.8
12.1378,17292.4
12.159,17292.5
12.1802,17292.7
12.2013,17290.7
12.2225,17293
12.2437,17293.3
12.2648,17291
12.286,17290.5
12.3072,17291.4
12.3283,17289.9
12.3495,17292.3
12.3707,17291.9
12.3918,17288.7
12.413,17288.6
12.4342,17291.6
12.4553,17289.2
12.4764,17289.1
12.4977,17290
12.5188,17287.4
12.54,17289.1
12.5612,17289
12.5824,17286.7
12.6035,17285.9
12.6247,17286
12.6458,17284.6
12.667,17284
12.6882,17287.1
12.7094,17283.7
12.7306,17284.9
12.7517,17284
12.7728,17281.2
12.794,17282
12.8152,17282.9
12.8363,17278.5
12.8575,17280.5
12.8787,17279.9
12.8998,17277.7
12.9211,17278
12.9422,17278.2
12.9634,17275.6
12.9845,17273.7
13.0057,17275.9
13.0268,17274.4
13.0481,17272.3
13.0692,17274.4
13.0903,17270
13.1116,17271.5
13.1327,17270.8
13.1539,17268.2
13.175,17267
13.1962,17268
13.2173,17264.1
13.2385,17262.6
13.2596,17263.8
13.2808,17261.3
13.302,17261.2
13.3232,17260.5
13.3443,17258
13.3655,17257.7
13.3867,17255.4
13.4077,17254.1
13.429,17251.7
13.4502,17251.6
13.4712,17248.1
13.4926,17249
13.5137,17247.2
13.5348,17244.4
13.556,17242.4
13.5772,17241.3
13.5983,17238.7
13.6195,17236.4
13.6407,17234.7
13.6618,17233.2
13.683,17231.8
13.7042,17231
13.7253,17227
13.7465,17223.7
13.7677,17223.6
13.7888,17220.6
13.81,17217.7
13.8312,17216.8
13.8523,17212.2
13.8736,17212.3
13.8947,17208.5
13.9158,17206
13.937,17203.2
13.9583,17198.6
13.9793,17197.4
14.0006,17194.9
14.0217,17191.2
14.0428,17187.7
14.0641,17185.2
14.0853,17182.2
14.1064,17178.8
14.1276,17174.8
14.1487,17171
14.1698,17168.7
14.1911,17165.9
14.2123,17160.4
14.2333,17156.9
14.2546,17153.5
14.2758,17149.2
14.2969,17146.5
14.3181,17141
14.3393,17137.8
14.3603,17132
14.3816,17129
14.4028,17121.8
14.4239,17118
14.4451,17114.8
14.4663,17109.2
14.4873,17105.5
14.5086,17098.7
14.5298,17092.7
14.5509,17087.8
14.5721,17082.9
14.5933,17076.8
14.6143,17070.8
14.6356,17066.2
14.6568,17059.4
14.6779,17053.3
14.6991,17050.7
14.7203,17040.1
14.7414,17035.3
14.7626,17029.7
14.7838,17020.8
14.8049,17014.6
14.8261,17006.9
14.8473,17000.3
14.8685,16992.6
14.8897,16985.1
14.9108,16976.9
14.9319,16968.1
14.9531,16962.6
14.9743,16951.2
14.9954,16942
15.0167,16933.5
15.0378,16922.9
15.0589,16917.4
15.0801,16906.8
15.1013,16893.8
15.1224,16882.7
15.1436,16872.6
15.1647,16860.9
15.1859,16847.5
15.2071,16836.8
15.2283,16822.6
15.2494,16811.7
15.2706,16800
15.2918,16783.9
15.3129,16767.2
15.3341,16751.9
15.3553,16736.8
15.3764,16721.7
15.3976,16705.3
15.4187,16686.3
15.4399,16667.9
15.461,16651.3
15.4822,16632.1
15.5033,16611.6
15.5246,16593.3
15.5457,16566.4
15.5669,16542.7
15.5881,16517.8
15.6092,16486.6
15.6304,16455.7
15.6516,16426.3
15.6728,16386.5
15.6939,16337.3
15.7151,16295.8
15.7363,16232.2
15.7574,16141.5
15.7787,16023.4
15.7998,15887.8
15.821,15747.2
15.8422,15540.3
15.8635,15247.1
15.8846,14610.4
15.9067,9447.1