File: data/PrimaryData/Aluminium_6061/Tensile_test_1.csv
Displacement (mm),Load (N)
-6.25795e-05,0.258374
6.09093e-05,0.149883
-3.50455e-05,1.67129
-0.000136836,1.76702
-2.09348e-05,5.45512
-2.01705e-05,6.91287
0.000171901,8.57737
5.02075e-05,9.03243
0.000293502,11.2055
0.000144618,13.1102
0.000263119,14.4339
0.000446094,16.8717
0.000243952,20.3591
0.000397239,22.6271
0.000402636,25.2325
0.000415926,27.4695
0.000722357,30.2445
0.000585669,33.8321
0.000477424,36.1605
0.000715498,39.6909
0.000691549,42.303
0.000712109,45.0201
0.00078668,46.3417
0.000711299,47.8539
0.00116678,52.7417
0.00101689,56.8481
0.000831808,60.8015
0.00122932,65.3811
0.00139841,69.8922
0.00138584,74.2704
0.00128752,82.1766
0.00148583,87.9813
0.00176565,92.7679
0.00178117,100.491
0.0019644,106.136
0.00196546,113.743
0.00193378,120.003
0.00211302,125.819
0.00230971,133.304
0.00239975,140.101
0.00269255,147.179
0.00272274,155.649
0.00288359,160.273
0.00316398,170.498
0.00340148,179.051
0.00307493,187.166
0.00337981,194.673
0.00358944,203.32
0.00392479,212.823
0.00380616,220.856
0.00408136,229.405
0.00410847,237.735
0.00423779,245.487
0.00435861,253.748
0.00462996,264.706
0.00473953,273.208
0.00499458,283.45
0.00504009,293.606
0.00544973,304.129
0.00546543,312.478
0.00564847,321.752
0.00579492,332.443
0.00586144,339.865
0.00618593,350.655
0.00617515,360.014
0.00642251,371.28
0.00653409,382.492
0.00682784,393.136
0.00699858,403.559
0.00742138,413.382
0.00760266,423.194
0.00781332,433.766
0.00785053,445.095
0.00814844,455.669
0.00826315,464.743
0.00851514,477.469
0.00862534,490.681
0.00885839,501.88
0.00919063,512.042
0.00925854,523.706
0.00958285,533.752
0.00950305,544.167
0.00967222,554.701
0.00994454,565.569
0.0100332,577.026
0.0105097,586.483
0.0104696,590.499
0.0106403,589.156
0.0101556,573.539
0.00990879,548.579
0.00948276,529.364
0.00946409,517.908
0.00930846,513.785
0.00907686,513.558
0.00922419,512.481
0.00904165,513.458
0.00930012,516.75
0.00954243,523.607
0.00949771,530.981
0.00984761,537.241
0.00981963,542.762
0.00986863,548.404
0.0100627,554.896
0.010011,563.207
0.0100557,569.2
0.0101991,577.128
0.0103166,585.306
0.0105552,592.211
0.0107202,598.094
0.0108406,603.838
0.0108707,610.879
0.0110563,620.438
0.0110848,626.96
0.0112623,634.016
0.0114073,639.096
0.0113494,645.798
0.0114834,654.053
0.0116803,662.97
0.0117327,669.172
0.0118382,674.821
0.0122172,683.591
0.0121878,688.565
0.0124107,696.047
0.0124229,705.864
0.012641,712.651
0.0127299,718.023
0.0129903,724.529
0.0127214,732.54
0.0129688,740.442
0.0132229,748.142
0.0132637,754.567
0.0136846,761.219
0.013558,768.43
0.0136146,776.892
0.0137026,784.109
0.0139881,791.56
0.0141199,796.988
0.0143248,803.502
0.0142828,813.876
0.0145201,819.658
0.0146314,826.417
0.0145943,831.031
0.0146335,836.15
0.0147297,843.509
0.0149835,848.378
0.0147977,851.371
0.014876,856.892
0.0149994,863.137
0.0149753,870.158
0.015402,874.507
0.0155064,879.171
0.0154753,885.865
0.0154324,874.357
0.0151551,860.591
0.0151396,859.615
0.0152872,865.103
0.0152769,874.002
0.0154323,883.072
0.0154482,890.587
0.0156261,897.559
0.015897,908.086
0.0160721,918.038
0.016168,925.046
0.0162958,933.25
0.0164328,942.395
0.016648,951.761
0.016925,957.681
0.0166044,963.653
0.0170977,973.967
0.0171644,980.114
0.0171796,986.974
0.01722,992.17
0.0174209,1001.89
0.0175091,1008.42
0.0176692,1013.9
0.0179683,1021.3
0.0178562,1029.84
0.0179441,1035.35
0.0179859,1042.13
0.0181996,1049.75
0.0185876,1058.41
0.018823,1065.31
0.0185604,1070.32
0.0188017,1079.42
0.0191432,1088.47
0.0188651,1092.69
0.0192333,1100.4
0.0192843,1109.76
0.0195343,1116.98
0.0196251,1123.18
0.0197779,1132.56
0.0196935,1140.21
0.0198863,1145.43
0.0200302,1152.89
0.020205,1161.54
0.0203247,1169.1
0.0202966,1176.13
0.0204113,1184.18
0.0207491,1193.98
0.0207855,1198.69
0.0208896,1208.77
0.0212228,1218.37
0.021387,1225.96
0.0213983,1233.49
0.0217399,1243.9
0.0217931,1250.44
0.021785,1258.9
0.0219704,1269.25
0.0220928,1277.83
0.0221642,1284.6
0.0225449,1295.57
0.0225432,1302.65
0.0228873,1308.6
0.0230324,1321.74
0.0230111,1329.09
0.0233471,1337.14
0.0235485,1349.26
0.0236814,1356.49
0.0236253,1361.97
0.0239109,1375.14
0.0241634,1383.21
0.0242566,1390.34
0.0245088,1401.6
0.0245477,1409.94
0.0247134,1420.27
0.0247742,1430.94
0.0248396,1438.7
0.0251977,1447.19
0.0253638,1458.5
0.0254902,1467.16
0.025588,1477.48
0.025733,1488.7
0.0260537,1495.44
0.0262308,1507.47
0.0262391,1516.76
0.0264558,1525.07
0.0267058,1538.32
0.0267256,1545.18
0.027041,1555.94
0.0274167,1566.99
0.0275022,1574.59
0.0278276,1586.36
0.0278326,1596.04
0.0279981,1605.37
0.0283226,1616.66
0.0283663,1625.05
0.0283758,1636.73
0.0286483,1648.68
0.0287615,1656.73
0.0292392,1668.85
0.0290867,1677.85
0.0293552,1689.08
0.0297399,1700.16
0.0298477,1707.94
0.0301825,1721.12
0.0299608,1730.61
0.0305222,1741.14
0.0306671,1754.78
0.0307465,1764.06
0.0309415,1777.52
0.0310146,1785.31
0.031217,1795.63
0.0314608,1807.88
0.0316286,1817.83
0.0318555,1831.31
0.0319524,1839.73
0.0321492,1852.96
0.0323073,1863.19
0.0324973,1874.51
0.0328518,1888.33
0.0327876,1897.65
0.0333353,1910.56
0.0335789,1921.99
0.0335482,1934.59
0.0337415,1943.03
0.0339606,1954.95
0.0342419,1968.1
0.0344048,1977.43
0.0343612,1992.85
0.0348369,2002.89
0.0351067,2017.9
0.0351216,2026.89
0.0354192,2041.4
0.0356593,2051.35
0.0359104,2065.35
0.0361822,2076.11
0.0364032,2087.85
0.0365056,2099.83
0.0367326,2113.7
0.0370744,2124.7
0.0371828,2138.07
0.0374212,2150.59
0.0375614,2161.99
0.0381171,2177.27
0.0382191,2187.13
0.038517,2201.76
0.0386291,2211.69
0.0388878,2226.75
0.039125,2236.87
0.0393168,2252.88
0.0396018,2262.85
0.0397384,2279.47
0.0398452,2289.74
0.0402855,2307.52
0.0402605,2316.61
0.0407743,2333.19
0.0408947,2344.08
0.0410243,2358.95
0.0412935,2368.74
0.0416576,2385.73
0.0420355,2397.48
0.0423788,2415.22
0.042585,2426.55
0.0426815,2442.31
0.0429662,2453.64
0.0429537,2470.35
0.0435512,2482.84
0.0440793,2510.38
0.0440884,2521.74
0.0441595,2531.3
0.0446035,2546.05
0.0447939,2557.48
0.045113,2573.88
0.0453053,2586.59
0.0455734,2601.92
0.0459972,2614.96
0.0459075,2629.41
0.046468,2646.19
0.0467059,2660.58
0.0469604,2676.68
0.0473208,2689.17
0.0475382,2705.36
0.0478815,2719.38
0.0481724,2735.9
0.0483569,2749.97
0.0486146,2766.71
0.048864,2779.77
0.0488941,2795.41
0.0491922,2811.74
0.0499618,2827.27
0.0500365,2843.54
0.0501947,2854.97
0.050762,2872.52
0.0508138,2889.7
0.0511126,2904.4
0.0513936,2920.78
0.051815,2934.29
0.0519752,2952.78
0.0521299,2966.875
0.0525957,2982.5
0.0527445,2997.28
0.0531011,3012.57
0.0532635,3029.62
0.0535835,3044.84
0.0540728,3062.68
0.0541484,3078.74
0.0546377,3094.37
0.055059,3111.66
0.055235,3127.05
0.0553785,3143.61
0.0557692,3160.78
0.0559857,3174.81
0.0564397,3193.55
0.0564824,3208.63
0.0571685,3224.91
0.0572799,3243.83
0.0575863,3259.31
0.0578525,3276.37
0.0581981,3293.21
0.0584196,3307.76
0.0587911,3325.85
0.0591172,3342.81
0.0592691,3360.53
0.0596058,3380.53
0.060121,3394.22
0.0604957,3412.56
0.0607288,3430.93
0.0610856,3445.38
0.0613776,3463.21
0.0616968,3481.47
0.0621901,3496.96
0.0622504,3515.06
0.0628671,3534.37
0.0629592,3550.73
0.0632717,3568.96
0.0635539,3586.7
0.0641515,3603.58
0.0644854,3622.93
0.0645315,3640.04
0.0650531,3657.86
0.0655162,3677.1
0.0655351,3695.94
0.0657995,3712.04
0.0665141,3731.43
0.0668309,3750.13
0.0672463,3767.4
0.0674848,3786.16
0.0678674,3805.18
0.0682802,3824.14
0.0686604,3841.67
0.068773,3861.1
0.0693773,3880.52
0.0696287,3896.92
0.0697052,3915.99
0.070158,3936.49
0.0706624,3954.87
0.0710722,3973.83
0.0714542,3994.64
0.0716559,4013.29
0.0720852,4032.09
0.0724729,4051
0.0729867,4071.55
0.0730524,4089.52
0.0735198,4107.56
0.0739014,4128.82
0.0743091,4149
0.0745541,4167.45
0.0747654,4186.27
0.0755636,4208.15
0.0759015,4226.5
0.0761986,4244.54
0.0765111,4265.43
0.0771005,4286.92
0.0773086,4307.17
0.0775725,4326.95
0.0780258,4347.62
0.0787671,4368.22
0.0788427,4387.69
0.0793474,4407.78
0.0795624,4429.99
0.08029,4450.64
0.080771,4470.02
0.0811645,4489.9
0.0815468,4509.12
0.0820821,4529.55
0.082091,4553.01
0.0826168,4573.18
0.0830626,4593.25
0.0836111,4615.41
0.0839221,4635.59
0.0845764,4658.27
0.0848474,4679.09
0.0853626,4699.44
0.0856508,4720.74
0.0860632,4743.29
0.086702,4765.08
0.0871526,4784.15
0.0875912,4805.85
0.0878512,4826.64
0.0882269,4849.28
0.0888538,4870.63
0.0891235,4891.67
0.0895588,4911.15
0.090153,4932.1
0.0907145,4954.89
0.0910683,4976.78
0.0915893,4997.49
0.092015,5018.02
0.0924922,5039.6
0.0929207,5061.39
0.093751,5086.6
0.0940226,5108
0.0946139,5129.44
0.0949578,5151.25
0.0954383,5173.34
0.0959287,5196.97
0.0963691,5220.19
0.0969608,5243.84
0.0975455,5265.97
0.0979833,5286.79
0.0985438,5308.61
0.0988069,5331.22
0.0994749,5354.3
0.0999887,5378.79
0.10073,5400.87
0.101041,5421.74
0.101644,5444.42
0.102213,5465.48
0.103121,5489.39
0.103347,5511.56
0.103854,5536.26
0.10447,5556.72
0.105015,5578.91
0.10565,5603.88
0.106044,5626.63
0.106894,5649.35
0.107639,5672.27
0.107998,5693.56
0.108682,5716.94
0.109256,5740.29
0.110123,5764.89
0.110636,5789.12
0.111194,5810.19
0.111802,5832.06
0.112494,5855.2
0.113242,5877.46
0.113907,5901.35
0.11468,5924.28
0.115125,5947.98
0.116182,5970.37
0.116556,5993.12
0.11764,6019.13
0.118316,6041.92
0.118868,6067
0.119856,6088.84
0.120493,6113.74
0.121325,6134.96
0.122239,6159.19
0.123269,6181.46
0.123687,6203.42
0.124677,6226.75
0.125564,6249.01
0.12641,6271.31
0.127218,6295.38
0.128056,6316.42
0.128874,6340.22
0.129615,6362.82
0.13059,6385.38
0.131573,6408.68
0.132399,6429.97
0.133432,6452.52
0.134414,6474.69
0.135329,6498.48
0.136373,6519.14
0.13729,6542.09
0.138155,6562.78
0.1393,6585.67
0.140224,6607.38
0.141382,6631.42
0.142531,6651.43
0.143618,6671.92
0.144453,6692.34
0.145817,6715.7
0.146821,6737.42
0.148078,6757.97
0.149209,6777.59
0.150483,6798.65
0.151556,6821.88
0.152815,6842.49
0.154235,6862.62
0.15529,6884.23
0.156374,6903.55
0.157697,6925.36
0.159345,6946.32
0.16045,6966.83
0.162103,6986.23
0.163393,7007.74
0.164806,7026.99
0.166297,7045.27
0.167598,7065.85
0.168998,7084.68
0.170394,7105.27
0.172018,7124.64
0.173643,7143.68
0.175125,7162.72
0.176718,7182.75
0.178253,7200.86
0.179902,7219.52
0.181452,7238.26
0.183196,7257.39
0.184952,7275.64
0.186431,7293.52
0.188503,7311.6
0.190001,7329.19
0.191743,7346.6
0.193645,7363.48
0.195603,7380.88
0.197079,7397.67
0.198987,7414.22
0.201112,7430.62
0.20247,7427.4
0.209763,7589.22
0.218375,7626.28
0.226712,7664.82
0.234721,7711.89
0.242767,7749.79
0.249999,7791.64
0.258221,7828.66
0.265974,7867.29
0.273907,7904.11
0.28195,7937.74
0.290801,7969.51
0.298953,8000.72
0.307802,8032.16
0.316953,8060.64
0.326186,8087.74
0.335528,8114.82
0.344757,8138.32
0.354483,8164.34
0.364372,8188.14
0.374468,8208.95
0.384791,8228.28
0.395061,8251.46
0.405549,8270.19
0.415779,8288.11
0.426388,8307.69
0.437379,8325.61
0.448257,8341.88
0.459151,8360.99
0.470362,8374.57
0.481669,8390.72
0.493206,8407.29
0.504914,8421.03
0.516661,8433.67
0.528257,8449.14
0.539993,8462.64
0.551647,8474.98
0.563801,8488.23
0.575342,8500.99
0.587344,8511.15
0.5993,8528.12
0.611195,8537.24
0.623705,8549.35
0.635665,8560.8
0.647884,8570.54
0.66018,8582.95
0.672361,8594.96
0.684649,8605.78
0.69717,8614.77
0.709368,8625.97
0.721749,8636.74
0.734299,8645.64
0.746661,8658.53
0.759095,8668.26
0.771452,8676.07
0.783793,8688.57
0.796197,8698.21
0.80864,8706.79
0.821129,8717.04
0.833877,8725.75
0.846117,8735
0.858399,8745.6
0.871021,8756.68
0.883477,8764.05
0.89606,8775.15
0.908656,8783.5
0.921175,8790.96
0.933426,8800.91
0.946047,8810.84
0.95867,8819.58
0.971148,8829.22
0.983665,8838.07
0.996353,8845.47
1.00877,8856.25
1.0212,8866.65
1.03356,8871.44
1.04577,8881.84
1.05828,8890.86
1.07074,8898.98
1.08306,8909.22
1.09542,8917.16
1.1079,8924.4
1.12038,8934.59
1.13244,8943.82
1.14522,8951.95
1.15753,8958.55
1.16994,8967.91
1.18222,8975.9
1.19447,8985.19
1.20712,8992.59
1.21923,9000.4
1.23167,9008.71
1.24378,9016.28
1.26074,9025.33
1.28198,9034.39
1.30308,9042.01
1.32427,9049.69
1.34551,9055.92
1.36665,9067.48
1.3878,9073.98
1.40899,9082.39
1.43013,9090.89
1.45128,9096.1
1.47247,9105.13
1.49357,9113.02
1.51471,9121
1.53595,9128.19
1.5571,9136.35
1.57824,9142.87
1.59948,9148.51
1.62058,9160.99
1.64172,9166.49
1.66301,9174.09
1.68415,9181.54
1.7053,9186.13
1.72644,9197.28
1.74763,9203.98
1.76873,9211.79
1.78997,9217.72
1.81111,9226.13
1.8323,9235.77
1.85345,9240.78
1.87459,9248.98
1.89579,9256.72
1.91698,9260.45
1.93807,9270.32
1.95922,9276.74
1.98046,9284.77
2.0016,9291.65
2.02275,9297.11
2.04399,9305.76
2.06513,9313.65
2.08623,9320.06
2.10742,9325.78
2.12861,9333.74
2.14971,9340.13
2.17095,9345.75
2.19209,9354.79
2.21324,9362.01
2.23443,9367.98
2.25562,9374.31
2.27676,9380.36
2.29796,9387.01
2.3191,9393.41
2.34025,9401.41
2.36148,9407.73
2.38268,9414.9
2.40373,9420.09
2.42496,9425.73
2.44611,9435.24
2.4673,9439.15
2.48845,9445.22
2.50964,9452.75
2.53074,9459.7
2.55193,9465.93
2.57312,9473.84
2.59426,9478.8
2.61541,9482.12
2.6366,9489.93
2.65774,9498.59
2.67894,9502.71
2.70008,9508.76
2.72127,9514.49
2.74242,9519.78
2.76361,9527.07
2.78475,9534.94
2.80594,9539.89
2.82714,9544.69
2.84828,9549.4
2.86943,9557.04
2.89062,9563.12
2.91171,9570.04
2.93291,9572.45
2.9541,9578.64
2.97529,9586.7
2.99639,9591.39
3.01758,9599.03
3.03877,9604.26
3.05991,9608.83
3.08106,9613.44
3.1022,9619.96
3.12335,9627.74
3.14459,9631.58
3.16573,9636.6
3.18697,9641.26
3.20811,9647.14
3.22926,9653.84
3.25036,9659.75
3.2716,9664.14
3.29269,9668.17
3.31384,9674.45
3.33503,9680.69
3.35622,9687.19
3.37732,9693.41
3.39856,9695.76
3.4197,9702.65
3.44085,9707.98
3.46199,9713.4
3.48314,9717.75
3.50433,9723.6
3.52557,9726.09
3.54671,9731.69
3.56786,9739.27
3.589,9742.72
3.61024,9746.69
3.63134,9752.85
3.65257,9756.77
3.67367,9763.35
3.69482,9768.82
3.71601,9773.9
3.73725,9777.52
3.75835,9782.87
3.77949,9786.98
3.80068,9793.1
3.82187,9797.98
3.84302,9802.26
3.86421,9804.29
3.88535,9812.02
3.90655,9814.36
3.92774,9820.8
3.94893,9824.33
3.97007,9828.66
3.99126,9831.85
4.01241,9838.53
4.0336,9842.59
4.05475,9846.68
4.07589,9849.69
4.09708,9854.79
4.11827,9858.87
4.13937,9865.72
4.16052,9869.96
4.18171,9873.87
4.2029,9877.38
4.224,9881.34
4.24519,9885.93
4.26638,9891.46
4.28752,9894.31
4.30872,9897.73
4.32991,9902.9
4.35101,9906.3
4.37224,9909.42
4.39334,9916.16
4.41453,9917.68
4.43568,9921.53
4.45687,9927.27
4.47801,9932.3
4.49921,9936.49
4.5204,9938.84
4.5415,9942.64
4.56269,9945.08
4.58383,9950.79
4.60493,9955.23
4.62617,9956.58
4.64736,9962.18
4.6685,9963.42
4.6897,9968
4.71089,9973.06
4.73203,9976
4.75318,9977.09
4.77437,9982.48
4.79551,9987.32
4.81666,9990.29
4.83785,9994.27
4.85899,9998.59
4.88018,9999.64
4.90133,10005.6
4.92247,10009.1
4.94367,10013.1
4.96486,10015.8
4.98596,10018.7
5.00715,10020.6
5.02834,10025.1
5.04948,10030.2
5.07067,10030.8
5.09191,10035.4
5.11301,10037.5
5.1342,10040.8
5.15535,10045.8
5.17649,10048.5
5.19768,10051.4
5.21887,10054.8
5.24002,10057.2
5.26116,10061.1
5.28236,10066
5.3035,10068.1
5.32469,10069.8
5.34588,10071.5
5.36698,10078
5.38817,10077.2
5.40941,10082.2
5.43051,10084.7
5.45165,10085.2
5.47289,10090
5.49404,10094
5.51518,10097.2
5.53637,10100.4
5.55752,10100.9
5.57866,10104.3
5.59985,10106.6
5.62095,10112.4
5.64219,10113.8
5.66338,10118
5.68448,10118.6
5.70567,10120.9
5.72686,10125.7
5.74801,10127.5
5.76915,10128.7
5.79039,10130.8
5.81149,10134.3
5.83263,10138.1
5.85387,10141.5
5.87502,10143.3
5.89616,10144
5.91735,10145.4
5.9385,10151.6
5.95964,10152.3
5.98083,10155.6
6.00198,10157.2
6.02317,10159.1
6.04436,10160.1
6.06546,10164.9
6.08665,10169.3
6.10784,10168.2
6.12899,10169.6
6.15013,10172.6
6.17137,10174.6
6.19247,10177.9
6.21366,10178.6
6.23485,10181.7
6.25599,10181.8
6.27714,10187.8
6.29833,10189.8
6.31948,10192
6.34062,10194.2
6.36186,10193.7
6.38296,10196.6
6.4041,10200.6
6.42534,10203.3
6.44644,10204
6.46763,10206.1
6.48882,10207.1
6.50997,10208.4
6.53111,10212
6.5523,10214.4
6.57345,10213.4
6.59459,10216.5
6.61583,10218
6.63697,10220.5
6.65812,10223
6.67931,10223.9
6.70045,10227.3
6.7216,10228.4
6.74275,10231
6.76394,10234.2
6.78513,10235.1
6.80632,10235
6.82742,10235.5
6.84861,10239
6.86975,10242.2
6.89094,10242.7
6.91214,10244
6.93333,10243.5
6.95443,10246.1
6.97557,10246.875
6.99681,10251
7.01795,10251.1
7.03914,10252.5
7.06029,10256.4
7.08143,10255.9
7.10263,10258.2
7.12377,10259.1
7.14496,10259.5
7.16611,10262.1
7.1873,10265
7.20844,10266.9
7.22968,10268.7
7.25083,10268
7.27197,10267.8
7.29312,10272.6
7.31431,10272.4
7.33545,10271.9
7.35664,10273.8
7.37783,10274.7
7.39898,10275.4
7.42012,10280.5
7.44132,10280.7
7.46246,10280.3
7.4837,10281.6
7.5048,10283.8
7.52594,10284.5
7.54713,10287.9
7.56828,10288.8
7.58942,10286.1
7.61066,10289.4
7.63181,10291.8
7.65295,10290.4
7.67409,10292.9
7.69533,10291.7
7.71643,10291
7.73762,10294.6
7.75877,10297.3
7.77991,10296.6
7.80115,10297.8
7.82229,10298
7.84344,10299.5
7.86463,10300.8
7.88573,10303.6
7.90687,10301.7
7.92811,10303.7
7.9493,10305
7.9704,10304.9
7.99164,10307.1
8.01278,10309.3
8.03393,10305.5
8.05512,10308.5
8.07631,10310.5
8.09741,10309.6
8.11865,10310.6
8.13979,10310.1
8.16098,10309
8.18213,10310.8
8.20332,10312.6
8.22442,10314.3
8.24566,10314.8
8.2668,10315.4
8.28795,10314.6
8.30914,10315.9
8.33028,10317.7
8.35138,10317.7
8.37267,10317.5
8.39381,10319.8
8.41496,10316.2
8.43615,10318.6
8.45734,10320.7
8.47844,10318.7
8.49967,10317.2
8.52082,10319.5
8.54192,10320
8.56316,10321.6
8.58435,10321.2
8.60545,10320.2
8.62668,10319.2
8.64778,10322.2
8.66893,10321
8.69012,10323.1
8.71131,10321.9
8.73241,10321.2
8.75369,10322.4
8.77479,10322.6
8.79589,10321.1
8.81713,10321
8.83832,10322
8.85941,10318.8
8.88065,10319.4
8.9018,10319.9
8.92294,10317.9
8.94413,10319.3
8.96533,10320.3
8.98642,10318.3
9.00766,10318.6
9.02881,10318.8
9.0499,10316.2
9.07114,10317.4
9.09233,10316.5
9.11334,10314.6
9.13467,10313.4
9.15582,10315.1
9.17696,10310.1
9.19815,10310.1
9.21934,10309.6
9.24039,10306.1
9.26163,10305.5
9.28282,10303.9
9.30392,10300.6
9.32516,10299.9
9.34635,10298.8
9.36745,10297.7
9.38869,10294.2
9.40983,10292.2
9.43093,10288
9.45217,10287.1
9.47331,10284.3
9.49441,10280.6
9.5157,10277.9
9.53684,10273.7
9.55794,10270.5
9.57913,10266.9
9.60037,10263
9.62142,10258.9
9.6427,10254
9.66385,10250.2
9.68495,10243.9
9.70619,10239.8
9.72733,10233.7
9.74848,10226.8
9.76971,10220.4
9.79081,10214.3
9.81191,10207.6
9.83315,10199.8
9.85434,10190.8
9.87539,10184.2
9.89668,10175.6
9.91782,10166.3
9.93896,10154.1
9.96016,10131.1
9.98135,10110.5
10.0024,10069.7
10.0236,9868.82
10.0308,4013.74