File: data/PrimaryData/Aluminium_6061/Tensile_test_3.csv
Displacement (mm),Load (N)
0.000306057,0.544333
9.43777e-05,1.28181
0.000285489,2.82112
0.000255334,2.97144
0.00015732,2.3466
0.000245674,4.34852
0.000187329,4.80769
0.000231096,5.59566
8.79805e-05,5.04121
0.000230331,6.07864
0.000291956,6.79941
0.000235839,9.46336
0.000228241,9.38822
0.000594277,11.5952
0.00041942,8.50897
0.000342175,11.8536
0.000364387,9.54702
0.000753938,16.115
0.000296185,10.4688
0.000591305,13.5231
0.000517099,15.0856
0.000612074,13.3147
0.000419559,15.5656
0.000476327,15.3944
0.000626161,19.4746
0.000179116,21.5256
0.000398595,25.069
0.000682081,25.5803
0.000407585,29.2631
0.000661004,31.2053
0.000997856,35.1653
0.00050237,36.0617
0.00109638,42.5417
0.000671866,42.8805
0.000668239,42.6334
0.000875144,48.5627
0.00132272,57.1527
0.000854129,58.2119
0.00140398,59.5353
0.00125918,64.1006
0.00129358,68.7258
0.00150172,73.3144
0.00124293,77.9298
0.00142574,83.1823
0.00163347,87.5791
0.00162698,93.8986
0.0019609,96.1893
0.00194163,106.288
0.00200861,109.101
0.0020486,115.327
0.00221794,122.434
0.00217446,126.211
0.00281004,139.162
0.00254678,141.294
0.00259031,144.074
0.00267611,151.613
0.00296147,157.454
0.00266346,159.691
0.00288718,161.364
0.00300702,160.895
0.00293315,164.262
0.00294903,162.268
0.00295293,160.383
0.00291885,166.624
0.00285995,162.701
0.00306833,169.098
0.00309652,167.855
0.0033961,179.372
0.00305855,178.131
0.00338185,180.794
0.00328417,182.886
0.00329644,185.622
0.00342565,188.482
0.00340544,191.4
0.00351754,194.79
0.00345606,196.917
0.00319177,189.53
0.00313132,183.037
0.0030519,184.486
0.00320062,186.381
0.00303878,186.883
0.00343146,194.124
0.00328365,196.332
0.00341066,196.785
0.00344444,201.68
0.00374318,210.092
0.0036556,209.966
0.00408455,215.379
0.00373164,225.786
0.00400238,225.8
0.00394246,227.623
0.0040468,232.256
0.00393258,235.223
0.00406852,236.661
0.00413233,243.643
0.00432133,245.329
0.00425459,251.967
0.00454234,253.911
0.0046201,256.235
0.00441233,255.887
0.00438102,258.636
0.00454655,259.932
0.00431024,262.16
0.00462888,269.228
0.00458388,270.212
0.00462958,272.966
0.00492654,274.345
0.00489372,286.503
0.00482465,288.829
0.00498962,294.109
0.00485077,301.384
0.00530248,304.849
0.00506348,308.5
0.00539761,316.074
0.00551008,319.501
0.00559728,319.903
0.00534864,324.721
0.0055709,332.764
0.00583525,332.129
0.00554084,337.719
0.00571142,343.683
0.00591377,348.728
0.00588757,353.105
0.0059377,359.439
0.00605697,364.248
0.00640716,369.36
0.00630057,374.397
0.00618635,376.315
0.00625019,381.327
0.00647918,385.68
0.00624544,390.195
0.00648219,393.827
0.00644475,397.306
0.00668511,401.956
0.00661931,407.953
0.00689466,410.43
0.00673596,416.331
0.00725692,420.632
0.00718069,425.991
0.00742844,433.12
0.00737511,437.776
0.00727628,443.733
0.00736596,444.942
0.00749536,450.713
0.00754041,457.854
0.00769802,464.409
0.00775864,472.509
0.00771763,474.768
0.00805066,478.405
0.0080895,487.495
0.00812774,492.383
0.00804232,496.153
0.00871286,505.478
0.00836133,505.571
0.0083178,499.906
0.00820765,502.677
0.00837457,509.499
0.00847542,518.523
0.00894734,528.036
0.00896767,536.064
0.00915695,545.445
0.00912223,548.504
0.00897735,552.826
0.00938651,557.013
0.0095262,571.15
0.00951449,575.253
0.00961296,579.512
0.00981187,588.165
0.00995067,596.464
0.00976017,598.2
0.0100273,603.998
0.00997982,609.994
0.0104791,620.763
0.0105674,633.465
0.0102884,629.013
0.0106325,640.715
0.0109572,649.278
0.0110237,654.978
0.0109222,656.147
0.0112087,667.104
0.0113194,674.728
0.0113215,681.737
0.011431,687.857
0.0114975,692.68
0.0114796,703.916
0.0118565,713.293
0.0119415,715.524
0.0121848,722.542
0.0121895,735.583
0.0122024,739.047
0.0124094,744.297
0.0126292,755.359
0.0126044,762.509
0.0127053,768.34
0.01296,777.485
0.0131556,784.223
0.0131137,791.175
0.0130296,795.902
0.0133329,807.881
0.013607,814.058
0.0135163,820.529
0.0136609,827.958
0.0142783,838.059
0.0141205,848.133
0.0143388,854.056
0.0146101,866.318
0.0144461,870.82
0.0146946,875.762
0.0147561,886.619
0.0149774,894.948
0.0151433,905.785
0.0149871,915.08
0.0151899,921.159
0.0155561,927.206
0.0154994,940.638
0.015435,943.768
0.0157922,950.563
0.0159615,964.141
0.0162027,969.57
0.0162394,979.471
0.0165346,989.301
0.0166414,997.077
0.0166081,1010.37
0.0167534,1015.41
0.0168848,1024.89
0.0171905,1034.65
0.0171725,1039.79
0.0174565,1050.89
0.0175026,1062.82
0.0180329,1071.54
0.0181547,1082.27
0.018056,1092.18
0.0183107,1099.51
0.0183087,1111.09
0.0187159,1119.27
0.0186806,1127.46
0.0189856,1138.85
0.0190868,1146.98
0.0192278,1154.87
0.0194137,1167.8
0.0195683,1179.19
0.0198378,1184.77
0.0198514,1198.53
0.0198244,1206.04
0.020086,1213.24
0.0204627,1228.45
0.0204778,1234.95
0.0206827,1244.14
0.0209196,1257.51
0.0211671,1265.13
0.0214341,1279.23
0.0212947,1284.26
0.0214492,1291.65
0.0218698,1306.66
0.021938,1315.33
0.021969,1326.49
0.022437,1340.7
0.0226731,1349.3
0.0227424,1358.44
0.0227826,1367.83
0.0231424,1380.82
0.0231887,1390.31
0.0231804,1399.85
0.0234529,1412.93
0.0235315,1418.4
0.0237332,1433.26
0.0240674,1444.84
0.0241839,1449.92
0.0245945,1471.33
0.0247308,1477.41
0.024814,1485.16
0.0249152,1497.36
0.0248525,1502.09
0.0254311,1516.65
0.0254641,1527.5
0.0257491,1540.68
0.0257078,1553.47
0.0259527,1560.38
0.0260947,1576.04
0.0263486,1577.57
0.026446,1595.28
0.026875,1602.96
0.0268975,1617.48
0.0270487,1624.93
0.0271802,1637.04
0.0273981,1648.78
0.0276228,1657.77
0.0278512,1672.33
0.0280087,1680.28
0.0280416,1692.4
0.0284424,1703.88
0.0286903,1714.89
0.0286532,1723.71
0.0288395,1735.79
0.0290255,1745.92
0.0293735,1759.86
0.0294684,1767.98
0.0295476,1776.59
0.0297534,1790.23
0.0299911,1797.12
0.0302934,1811.47
0.0301551,1819.01
0.0303625,1830.82
0.0306318,1840.5
0.0308769,1853.04
0.0310171,1863.42
0.0312919,1875.53
0.0315653,1884.55
0.0315198,1897.23
0.0316944,1910.11
0.0320761,1919.44
0.0322526,1931.75
0.03224,1940.25
0.0327938,1957.81
0.0329432,1966.23
0.0329875,1979.05
0.0332792,1990.85
0.0331567,1999.94
0.0340201,2015.58
0.0337617,2026.98
0.0338766,2036.99
0.0342455,2048.37
0.0346048,2061.74
0.0344594,2071.31
0.0349256,2086.06
0.0353694,2104.31
0.0351517,2109.4
0.0360907,2150.06
0.0360149,2142.76
0.0356599,2151.25
0.0363755,2169.03
0.0363306,2175.12
0.0366847,2189.34
0.0367317,2200.55
0.037147,2215.1
0.0371711,2227.76
0.0374267,2240.18
0.0382138,2255.1
0.0382265,2265.93
0.038117,2278.64
0.038629,2295.91
0.038645,2311.86
0.0388556,2317.14
0.0392633,2335.63
0.0395154,2347.44
0.0395402,2359.02
0.0399133,2375.38
0.0399701,2388.78
0.0401818,2402.74
0.0404109,2412.03
0.0407007,2428.71
0.0407184,2441.2
0.041273,2455.3
0.0413791,2470.89
0.0417708,2483.26
0.0420823,2501.08
0.0420982,2514.84
0.0422696,2529.07
0.0421756,2539.73
0.0428822,2556.83
0.0431331,2570.68
0.0432497,2585.57
0.0436509,2601.45
0.0441317,2616.38
0.0439679,2626.42
0.0444228,2644.44
0.0446737,2661.88
0.0448382,2674.52
0.0450689,2688.89
0.0453618,2703.87
0.045723,2720.16
0.0460857,2733.34
0.0462218,2750.71
0.0465906,2764.86
0.0469718,2785.11
0.0468495,2794.21
0.0472859,2810.99
0.0475262,2825.55
0.0477287,2843.5
0.0478619,2856.06
0.0482149,2873.37
0.0485686,2889.38
0.0489948,2905.26
0.049012,2923.58
0.0493098,2936.19
0.0498155,2956.63
0.0499055,2971.74
0.0501836,2985.49
0.0507747,3008.1
0.0510023,3020.76
0.0510024,3034.37
0.0515382,3050.92
0.051539,3069.88
0.0522006,3083.92
0.0524984,3103.61
0.0523059,3118.73
0.052633,3134.48
0.0527042,3148.87
0.0531215,3169.74
0.0534648,3184.56
0.0538296,3201.23
0.0540531,3220.4
0.0546609,3235.3
0.0545077,3252.18
0.0551373,3274.14
0.0554916,3288
0.055478,3304.95
0.0559494,3318.87
0.0562272,3341.1
0.0565088,3356.59
0.05688,3375.16
0.0573483,3398.45
0.0572748,3408.6
0.0577362,3426.87
0.0579618,3445.27
0.0585008,3465.75
0.0588419,3482.3
0.0586594,3495.29
0.0592053,3518.68
0.0596246,3537.78
0.0600686,3554.81
0.0602252,3573.8
0.0607909,3594.7
0.0608679,3607.98
0.0611291,3625.11
0.0617223,3647.81
0.0622316,3665.28
0.0621357,3683.63
0.0625852,3703.65
0.0629389,3722.2
0.0631621,3740.74
0.0637187,3762.16
0.0639838,3779.49
0.0641931,3802.51
0.0644341,3819.25
0.0650368,3838.69
0.0653389,3858.23
0.0655527,3877.28
0.0663039,3903.54
0.0660066,3914.36
0.0664846,3934.23
0.0670855,3958.87
0.067318,3976.05
0.0676561,3992.75
0.0679172,4016.04
0.0684021,4034.46
0.0687235,4051.63
0.0689988,4075.14
0.0690299,4091.26
0.0696054,4112.61
0.070095,4139.5
0.0702518,4153.82
0.0709898,4177.01
0.0710166,4192.77
0.0715096,4222.61
0.0717606,4238.15
0.0721337,4259.57
0.0724777,4275.7
0.0728897,4298.08
0.0732582,4318.22
0.0735318,4338.16
0.0739531,4362.5
0.0743369,4382.67
0.0745795,4400.76
0.0750109,4422.26
0.0752799,4439.93
0.0758761,4465.08
0.0761654,4486.55
0.0767446,4509.4
0.076792,4530.11
0.0775001,4549.41
0.077765,4573.12
0.078304,4592.02
0.078287,4617.11
0.0791738,4638.67
0.0791561,4658.45
0.0794887,4680.55
0.0799085,4703.22
0.0804067,4724.69
0.0808269,4748.9
0.081233,4771.26
0.0814886,4791.97
0.0817414,4814.88
0.0823359,4832.65
0.0824128,4855.19
0.0831198,4881.19
0.0835079,4902.05
0.083751,4926.43
0.0842984,4948.55
0.0846957,4970.99
0.0849991,4993.65
0.0853429,5015.54
0.0858253,5035.5
0.0858443,5061.36
0.0865595,5084.08
0.0865734,5107.52
0.0872903,5129.16
0.0878437,5150.96
0.088004,5176.01
0.0886058,5201.61
0.0888939,5223.45
0.0894171,5247.01
0.0897159,5269.53
0.090001,5293.47
0.090815,5316.99
0.0908592,5338.56
0.0917275,5364.78
0.0918146,5386.59
0.0924454,5411.36
0.0929212,5437.93
0.093025,5461.51
0.093624,5483.98
0.0938837,5508.39
0.0941843,5529.44
0.0949826,5560.99
0.0953015,5579.83
0.0955269,5603.98
0.0961967,5627.81
0.0965729,5652.83
0.0971352,5677.69
0.0973474,5702.81
0.0982943,5729.66
0.0983414,5754.11
0.0988494,5778.5
0.0994355,5802.11
0.0992721,5823.63
0.100335,5847.57
0.100621,5878.52
0.101223,5903.28
0.101407,5925.7
0.102145,5950.98
0.102335,5975.1
0.103109,6002.06
0.103422,6028.39
0.10384,6052.1
0.10418,6073.81
0.105035,6106.52
0.105777,6136.76
0.105781,6155.87
0.106449,6182.13
0.10662,6208.42
0.107103,6232.73
0.107388,6258.95
0.108298,6285.95
0.108613,6309.56
0.109411,6335.35
0.109676,6362.33
0.109976,6389.45
0.11074,6415.21
0.110869,6440.08
0.111558,6469.81
0.11207,6493.39
0.112445,6520.7
0.113043,6550.19
0.113509,6575.22
0.114292,6600.26
0.114638,6628.01
0.114939,6655.06
0.115644,6685.46
0.115931,6708.49
0.116405,6737.95
0.11709,6765.17
0.117672,6793.88
0.118221,6821.62
0.118748,6849.53
0.119346,6878.91
0.119761,6899.7
0.120399,6926.78
0.120911,6956.65
0.121125,6986.57
0.121939,7011.72
0.1225,7045.33
0.12309,7071.42
0.123541,7097.46
0.124172,7128.42
0.124326,7156.61
0.124924,7184.04
0.125986,7215.64
0.126335,7242.53
0.126617,7270.82
0.127519,7296.81
0.128083,7330.1
0.128641,7353.36
0.128969,7388.58
0.12968,7414.73
0.130381,7444.28
0.132067,7528.78
0.134641,7671.55
0.136698,7761.35
0.138339,7839.42
0.14018,7923.46
0.142438,8009.17
0.144031,8091.09
0.146042,8172.99
0.148111,8252.91
0.150305,8335.54
0.152506,8419.15
0.154807,8498.26
0.157242,8577.6
0.159727,8658.17
0.162431,8736.71
0.16505,8817.31
0.167918,8891.14
0.170823,8969.56
0.173833,9043.57
0.176942,9115.06
0.180603,9189.78
0.183928,9255.17
0.187554,9326.87
0.191613,9395.85
0.195719,9457.79
0.199528,9520.72
0.20376,9580.64
0.208506,9640.27
0.213384,9698.9
0.218293,9755.78
0.223686,9812.24
0.228874,9858.53
0.234594,9914.63
0.240382,9964.17
0.246379,10014.5
0.252818,10057.4
0.259493,10103.7
0.266263,10145.7
0.273377,10187.3
0.28052,10226.8
0.288134,10266
0.295061,10293.9
0.303007,10331.3
0.311044,10366.7
0.319027,10394
0.327318,10426.8
0.336132,10454.8
0.344616,10484.4
0.353987,10515.4
0.362987,10537.3
0.372316,10560.2
0.381841,10583.375
0.39138,10607.3
0.401484,10627.3
0.411821,10648.9
0.421764,10668.5
0.432198,10687.7
0.442665,10704.7
0.452936,10723.7
0.463878,10740.5
0.474864,10757
0.485794,10771.3
0.496904,10787.2
0.508007,10799.6
0.519152,10817.1
0.530736,10830.9
0.541757,10843.4
0.553495,10858.2
0.565061,10870.3
0.576853,10887.2
0.588395,10897
0.600448,10909
0.612166,10919.6
0.624184,10933.8
0.636275,10946.8
0.648196,10955.5
0.660388,10965.6
0.672338,10976.4
0.68421,10985.9
0.696089,11000.6
0.708265,11008.6
0.720114,11017.6
0.732642,11029.6
0.744461,11037.6
0.756932,11049.3
0.769005,11062.3
0.781168,11068.8
0.793667,11078.7
0.805744,11088.7
0.817983,11095.8
0.830052,11107.8
0.842507,11119.8
0.854731,11125.7
0.867021,11136.9
0.879265,11145.7
0.891537,11153.6
0.903777,11164.1
0.916038,11173.5
0.928294,11180.3
0.94037,11190.5
0.952727,11199.3
0.96463,11208
0.976965,11217.3
0.989014,11225.9
1.00113,11231.8
1.01337,11243.4
1.02532,11250.3
1.03748,11262.3
1.04985,11268.7
1.06229,11279.4
1.0742,11286.1
1.08638,11296.3
1.0987,11306.9
1.11093,11313.5
1.12293,11320.1
1.1349,11328.7
1.14712,11336.1
1.15906,11346
1.17116,11354.7
1.18322,11360.6
1.19539,11370.3
1.20742,11378
1.2195,11386.7
1.23164,11395.8
1.2436,11403.7
1.25971,11408.7
1.2809,11417.3
1.30204,11426.9
1.32319,11434.5
1.34438,11443.2
1.36557,11451.5
1.38672,11457.8
1.40791,11463.1
1.42905,11474.8
1.4502,11481.3
1.47139,11488.1
1.49258,11497.2
1.51372,11502.8
1.53492,11513.8
1.55606,11521.4
1.5772,11526.8
1.5984,11535.9
1.61959,11543.1
1.64069,11550.7
1.66188,11558.7
1.68307,11565.3
1.70421,11572.9
1.7254,11576.8
1.7466,11588.1
1.76769,11597.3
1.78889,11601.3
1.81008,11609.9
1.83118,11615.1
1.85241,11621.5
1.8736,11629.9
1.89466,11639.4
1.91589,11645.9
1.93709,11653.2
1.95818,11662.5
1.97938,11666.9
2.00057,11679
2.02167,11682.5
2.0429,11687.1
2.06405,11697.1
2.08524,11696.9
2.10638,11709.1
2.12758,11716.1
2.14867,11724.6
2.16987,11726.8
2.1911,11736.5
2.21215,11742.5
2.23335,11751.3
2.25458,11756.2
2.27564,11768.9
2.29692,11765.5
2.31807,11776.5
2.33916,11782.3
2.36031,11791.3
2.38155,11797.2
2.40264,11802.5
2.42384,11808.4
2.44503,11814.7
2.46617,11821.7
2.48736,11827.1
2.50855,11834.2
2.52965,11839.6
2.55089,11843.5
2.57204,11852.3
2.59313,11861.3
2.61433,11864.2
2.63552,11869
2.65661,11875.8
2.67785,11884.3
2.699,11890.3
2.7201,11897.4
2.74129,11901.5
2.76253,11908.2
2.78362,11914.6
2.80482,11920.9
2.82596,11929.5
2.8471,11935
2.8683,11937.1
2.88953,11943.2
2.91063,11950.7
2.93182,11956.2
2.95297,11959.7
2.97411,11967.4
2.9953,11972
3.0165,11984.4
3.03759,11987.5
3.05883,11988.6
3.08002,11994.9
3.10117,12000
3.12227,12007.9
3.1435,12013.1
3.16456,12017.4
3.18579,12024
3.20694,12028
3.22813,12032.3
3.24928,12038.6
3.27047,12042.8
3.29161,12050.1
3.31285,12055.2
3.33399,12059.8
3.35514,12064.3
3.37633,12072.1
3.39748,12075.6
3.41862,12080.7
3.43986,12085.2
3.461,12090.8
3.4821,12096.8
3.50329,12104.4
3.52448,12105.8
3.54563,12110.6
3.56687,12114.8
3.58797,12119.2
3.60911,12123.7
3.6303,12130.9
3.65149,12133.2
3.67264,12138.5
3.69383,12145.1
3.71497,12150.5
3.73612,12154.6
3.75731,12160.3
3.7785,12166.2
3.7996,12165.5
3.82084,12172.6
3.84194,12177.2
3.86313,12182.2
3.88427,12184.8
3.90551,12193.8
3.92661,12196.4
3.9478,12201.7
3.96894,12203.9
3.99014,12206.7
4.01128,12212.2
4.03247,12212.8
4.05357,12222.9
4.07481,12229.6
4.09595,12230.4
4.11714,12235.7
4.13834,12239.8
4.15943,12243.1
4.18058,12247.1
4.20182,12250.4
4.22296,12253.5
4.24415,12259.6
4.2653,12265.1
4.28644,12269
4.30759,12273.4
4.32883,12278.9
4.34992,12281.6
4.37107,12283.6
4.39226,12290.2
4.4134,12292.3
4.43464,12297.1
4.45583,12301.7
4.47693,12302.6
4.49808,12307.1
4.51927,12314.2
4.54046,12316.1
4.5616,12319.4
4.58284,12323.8
4.60394,12325.4
4.62509,12324.2
4.64632,12334
4.66747,12338
4.68861,12338.7
4.7098,12345.4
4.7309,12350.4
4.75209,12354.4
4.77329,12356.7
4.79443,12364
4.81558,12364.3
4.83681,12366.5
4.85791,12369.7
4.87906,12374.2
4.90029,12375.5
4.92144,12380.5
4.94258,12383.5
4.96378,12384.6
4.98487,12392
5.00611,12394.7
5.0273,12398.4
5.04845,12404.4
5.06959,12404.7
5.09078,12410.7
5.11193,12413.9
5.13307,12412.5
5.15426,12415
5.17536,12419.6
5.19655,12422.6
5.21779,12424.7
5.23894,12434.3
5.26008,12428.1
5.28127,12432.3
5.30237,12437.9
5.32356,12438.7
5.34475,12444.4
5.3659,12446.7
5.38704,12447.1
5.40828,12449.3
5.42938,12456.9
5.45053,12458.6
5.47176,12460.3
5.49286,12463.7
5.51405,12465.4
5.53524,12469
5.55639,12479.1
5.57753,12472.1
5.59877,12478.3
5.61992,12482
5.64106,12482
5.66225,12485.6
5.6834,12488.5
5.70454,12489.8
5.72578,12491.2
5.74688,12495.5
5.76802,12499.9
5.78926,12500.2
5.81045,12506.5
5.83155,12504.3
5.85274,12509.5
5.87389,12514.2
5.89503,12512.8
5.91622,12515.4
5.93737,12517.1
5.95856,12521.6
5.9798,12521.8
6.0009,12527.6
6.02204,12528.5
6.04328,12530
6.06442,12532.3
6.08557,12535.4
6.10676,12536.9
6.1279,12540.4
6.14905,12540.3
6.17024,12542
6.19138,12545.4
6.21253,12549
6.23377,12550.9
6.25491,12553
6.27606,12554.1
6.29725,12553.3
6.31835,12557.4
6.33954,12560
6.36073,12561.3
6.38192,12565
6.40307,12566.4
6.42426,12568.2
6.4454,12568.5
6.46655,12574.6
6.48774,12572.5
6.50888,12571.8
6.53003,12578.3
6.55122,12579.4
6.57241,12583.2
6.59356,12583.9
6.61475,12585
6.63594,12587.5
6.65704,12589.3
6.67818,12591.125
6.69942,12593.1
6.72056,12594.5
6.74176,12593.7
6.7629,12597.7
6.784,12599.1
6.80524,12600.8
6.82638,12603.7
6.84757,12603.9
6.86872,12604.3
6.88991,12607.4
6.91105,12609.9
6.93225,12611
6.95344,12612.3
6.97458,12614
6.99573,12615.3
7.01687,12617.3
7.03802,12620.4
7.05921,12619.9
7.0804,12621
7.10154,12620.3
7.12269,12623.2
7.14393,12625.6
7.16507,12627.4
7.18626,12627.5
7.20741,12627.5
7.22855,12630.8
7.2497,12632.6
7.27093,12634.3
7.29208,12634.6
7.31327,12635.6
7.33442,12638.1
7.35561,12638.3
7.37675,12640.6
7.39794,12641.1
7.41909,12641.3
7.44023,12644.2
7.46142,12643.7
7.48262,12646.6
7.50376,12648.1
7.525,12646.6
7.5461,12647
7.56724,12649.7
7.58839,12651.4
7.60962,12654.4
7.63072,12653.6
7.65196,12651
7.67306,12654.6
7.6942,12659.6
7.7154,12661.7
7.73659,12659
7.75773,12658.4
7.77892,12658.6
7.80007,12662.5
7.82121,12663.1
7.8424,12663.4
7.8636,12662.8
7.88474,12662.3
7.90593,12664
7.92708,12664.9
7.94827,12668.9
7.96941,12667.7
7.9906,12665.4
8.0117,12668.4
8.03294,12668.5
8.05404,12671.6
8.07518,12672.3
8.09642,12672.9
8.11761,12672.2
8.13871,12671.5
8.15986,12674.1
8.18105,12676.1
8.20224,12676.6
8.22338,12674
8.24457,12677.7
8.26567,12676.2
8.28691,12676.8
8.3081,12677.6
8.32929,12675.9
8.35039,12677.1
8.37158,12677.7
8.39268,12680.2
8.41392,12680.4
8.43506,12677.2
8.45621,12680.2
8.4774,12679.3
8.49859,12679.3
8.51974,12682
8.54088,12680.9
8.56207,12680.3
8.58322,12681.6
8.60436,12680.9
8.62555,12680.6
8.64675,12680
8.66794,12680
8.68908,12677.6
8.71023,12680.3
8.73137,12682
8.75261,12682
8.77371,12683.9
8.79495,12680.6
8.81604,12678.8
8.83723,12679.5
8.85838,12679
8.87962,12679.4
8.90076,12678.8
8.92186,12679.7
8.94305,12678.5
8.96424,12677.1
8.98539,12678.5
9.00663,12673.5
9.02772,12674.4
9.04892,12672
9.07006,12674.3
9.0913,12672.7
9.1124,12673.7
9.13363,12669.8
9.15473,12666.7
9.17593,12666.2
9.19707,12664.1
9.21826,12663.3
9.23941,12663.3
9.2606,12655.3
9.28169,12659.6
9.30284,12661.1
9.32403,12651.5
9.34527,12650.5
9.36637,12650.8
9.38756,12646.5
9.4087,12645.3
9.42985,12642.7
9.45104,12643.6
9.47228,12635.5
9.49338,12632.9
9.51457,12631.5
9.53571,12624.2
9.5569,12620.5
9.57805,12618.4
9.59924,12612.1
9.62039,12611.1
9.64162,12600.5
9.66281,12594.9
9.68391,12590.2
9.70506,12585.5
9.72625,12577.8
9.74735,12571.6
9.76858,12563.8
9.78973,12556.6
9.81092,12550.2
9.83207,12540.6
9.85326,12533.5
9.8744,12525.3
9.89559,12513.9
9.91679,12505.9
9.93793,12497.8
9.95907,12485.1
9.98027,12475.9
10.0014,12460.6
10.0226,12448.5
10.0438,12439.9
10.0649,12424.8
10.0861,12409.3
10.1073,12390.9
10.1285,12368.3
10.1496,12343.8
10.1708,12302.1
10.1848,12254.2