File: data/PrimaryData/Aluminium_6061/Tensile_002.csv
Displacement (mm),Load (N)
5.22853e-05,4.49155
0.000159574,3.85976
9.64689e-05,8.45053
-6.13083e-06,7.53903
0.000598154,1.44524
6.64739e-05,8.01226
0.000164517,9.52705
4.06333e-05,10.8451
7.24868e-05,14.4919
0.000259315,15.7307
0.000204885,15.2791
0.000140739,16.3546
0.000278139,16.696
0.000478417,20.8337
0.000198955,23.8204
0.000451988,26.2662
0.000416122,26.9832
0.000616967,31.5532
0.000569258,34.9021
0.000754477,36.7109
0.000623317,39.8711
0.000788627,37.7375
0.000762503,41.1162
0.000751414,43.6687
0.000553766,45.8965
0.000711715,49.8475
0.000915538,54.2887
0.000829766,57.522
0.000997778,62.6067
0.00100553,64.91
0.00113273,70.011
0.0011905,72.5398
0.00127865,73.972
0.00128217,79.8061
0.00147607,83.056
0.0015096,90.6868
0.00145259,90.1652
0.00149971,95.3168
0.00173569,99.2801
0.00158661,103.203
0.00188639,110.862
0.00191164,116.533
0.00214659,117.996
0.00240149,119.665
0.00188213,131.686
0.0024813,138.222
0.00230923,142.594
0.00269908,140.711
0.00248283,154.983
0.00270196,162.317
0.00290663,168.745
0.00305164,173.456
0.00285928,177.883
0.00301367,184.405
0.00325776,187.097
0.00326348,197.185
0.00335222,203.516
0.00329038,209.341
0.00367418,214.95
0.00382031,221.725
0.00400118,229.122
0.00408421,234.35
0.00380225,245.479
0.00431289,253.397
0.00441387,260.029
0.00452881,268.073
0.0045224,274.228
0.00471808,281.963
0.00479542,289.903
0.00502727,295.404
0.00500214,303.562
0.00516414,311.144
0.00525585,317.655
0.0051378,323.657
0.00551847,334.104
0.00559043,341.232
0.00583635,350.518
0.00607019,358.466
0.0063795,365.512
0.0064864,376.379
0.00622112,383.507
0.00658671,389.015
0.00641599,396.387
0.00664733,403.581
0.00684927,411.971
0.00705437,417.254
0.00722517,426.005
0.00720545,432.377
0.00742597,442.42
0.00774979,450.423
0.00777606,455.183
0.00761473,460.902
0.00761155,463.291
0.00781034,467.052
0.00797428,470.19
0.00792207,471.029
0.00761955,470.831
0.00764074,469.177
0.00792318,469.488
0.00791877,464.213
0.00790058,461.186
0.0076021,456.509
0.00763914,453.19
0.00756142,451.901
0.0075027,448.473
0.0073096,447.374
0.00761653,446.707
0.00762741,447.836
0.00727711,448.936
0.00750333,451.682
0.00765727,454
0.00753654,457.458
0.00792736,461.224
0.00771204,464.481
0.00783452,464.334
0.00780561,467.344
0.00795764,469.123
0.00798835,474.002
0.00816536,479.348
0.00789742,484.246
0.008066,487.427
0.00804021,493.857
0.00816923,497.89
0.00844915,497.652
0.00824343,500.367
0.00838181,505.52
0.00832542,509.578
0.00872739,512.319
0.00846369,520.989
0.00849162,521.57
0.00841557,527.3
0.00846468,528.689
0.00873531,532.316
0.00864254,538.959
0.00889475,540.87
0.00913667,548.661
0.009076,552.421
0.00916424,556.605
0.00904806,559.461
0.00964014,565.377
0.00921824,566.104
0.00961612,573.723
0.00954848,576.94
0.0092218,580.331
0.00971488,585.412
0.0096689,590.011
0.0098338,591.468
0.0096966,592.074
0.00985278,593.825
0.00995861,596.518
0.0100988,601.571
0.00993993,603.818
0.00997737,607.344
0.0101349,610.423
0.0100826,612.54
0.0100306,614.871
0.0102513,620.811
0.010081,626.887
0.0104542,631.583
0.010607,638.246
0.0103954,639.042
0.0107667,645.686
0.0106999,650.587
0.0108793,658.382
0.0108869,666.311
0.0106108,676.121
0.0107575,679.167
0.0110193,678.953
0.0115404,683.356
0.0113799,692.298
0.0114987,698.506
0.0115279,705.119
0.0116858,710.277
0.0118278,713.824
0.0116463,717.887
0.0119305,722.776
0.0118183,730.434
0.0121079,736.708
0.0120979,740.909
0.0123503,745.36
0.0123207,750.002
0.012442,755.638
0.0126995,762.462
0.012583,768.541
0.0128241,772.436
0.0126753,780.094
0.0130677,781.817
0.0131081,788.701
0.01305,796.365
0.013023,801.702
0.0132461,806.533
0.0131489,810.665
0.0132847,817.696
0.0135629,824.175
0.0135654,828.957
0.0136546,835.108
0.0135372,838.869
0.0139154,844.151
0.0138716,850.059
0.0139857,855.684
0.014037,863.232
0.0142222,868.539
0.0144722,877.207
0.0143744,878.4
0.0146901,881.079
0.014381,890.727
0.0141389,891.375
0.0143357,895.965
0.0145926,907.282
0.0150697,913.18
0.0148143,918.289
0.015087,924.244
0.0149818,927.963
0.0152665,932.63
0.0152693,939.738
0.0154669,949.02
0.015428,954.829
0.0156724,959.09
0.0155168,965.105
0.0158001,970.003
0.0160732,981.613
0.0158025,982.43
0.0161016,982.777
0.0160365,992.709
0.0164136,999.253
0.0161117,1005.37
0.0165006,1011.07
0.0165705,1019.66
0.0164982,1024.83
0.0169062,1032.9
0.0168785,1035.98
0.0169829,1040.95
0.0170726,1050.57
0.0171854,1057.25
0.0173152,1063.98
0.0174642,1068.4
0.0174999,1073.11
0.017568,1085.26
0.0177136,1089.1
0.0177797,1097.83
0.0178423,1099.21
0.0178438,1106.94
0.0176275,1116.34
0.0185946,1115.27
0.0177525,1127.25
0.018485,1142.9
0.0185118,1143.44
0.0186115,1150.33
0.0186739,1158.49
0.0187055,1162.58
0.0185126,1175.78
0.0194038,1182.2
0.0193226,1182.72
0.0191693,1189.26
0.0193046,1196.27
0.0193586,1202.95
0.0195252,1214.51
0.0198283,1223.05
0.0202612,1233.02
0.019294,1234.98
0.0201193,1240.41
0.0199917,1246.64
0.0203941,1255.02
0.0200825,1262.97
0.0205522,1268.62
0.0207432,1274.51
0.0202563,1287.01
0.0209965,1291.48
0.0210435,1297.84
0.0211219,1304.13
0.0214224,1313.25
0.0216044,1318.34
0.0215773,1325.91
0.0218868,1334.13
0.0218027,1342.77
0.0219374,1349.33
0.0217761,1356.5
0.0222339,1363.92
0.0222295,1373.74
0.0222799,1379.06
0.0225838,1387.25
0.0226076,1397.46
0.0227184,1406.09
0.0227302,1410.16
0.0231034,1419.21
0.0232978,1428.16
0.0233299,1434.83
0.0232837,1443.78
0.0237841,1453.63
0.0236544,1459.03
0.0238733,1465.92
0.0239879,1475.95
0.0242745,1484.3
0.0244157,1492.21
0.0245799,1499.48
0.0245623,1509.17
0.0247365,1518.17
0.0251622,1524.22
0.0250921,1535.19
0.0250024,1543.7
0.0253718,1548.51
0.0256506,1557.27
0.0254539,1569.74
0.025616,1575.7
0.0258322,1583.43
0.0260528,1594.33
0.0262098,1600.63
0.026208,1609.39
0.0266504,1617.46
0.0266284,1627.52
0.0268506,1634.44
0.0266691,1646.02
0.027137,1656.43
0.0270787,1661.65
0.0272711,1671.46
0.0276806,1682.56
0.0278677,1689.56
0.0280893,1695.7
0.0279555,1711.08
0.0281252,1716.38
0.0282799,1722.78
0.0285056,1735.97
0.0286611,1742.64
0.0288654,1751.29
0.0290169,1762.9
0.029306,1772.03
0.0292409,1778.93
0.0294755,1790.47
0.0296872,1797.96
0.0297911,1807.11
0.0301683,1819.54
0.0303886,1828.13
0.0304729,1837.26
0.0306515,1847.68
0.0308447,1855.03
0.0308982,1862.85
0.0309661,1875.46
0.0310514,1884.08
0.0314616,1892.25
0.0314122,1905.13
0.0316874,1912
0.0318937,1921.12
0.0322538,1932.68
0.0320778,1941.61
0.032441,1952.12
0.0324971,1964.06
0.0327061,1970.93
0.0330353,1981.78
0.0329833,1993.94
0.0330993,2001.13
0.0334419,2012.78
0.0337545,2022.56
0.0336279,2028.94
0.0338059,2041.29
0.0339739,2052.94
0.0340929,2060.98
0.0344268,2073.18
0.0347665,2083.01
0.0347439,2091.75
0.0351042,2104.64
0.0350922,2112.97
0.035381,2125.55
0.0357437,2136.17
0.0360011,2145
0.0362786,2158.72
0.0361001,2166.26
0.0365149,2176.62
0.036795,2188.37
0.0368917,2196.61
0.0371733,2212.13
0.0372282,2222.35
0.0373128,2232.18
0.0375407,2246.37
0.0376551,2253.9
0.0381057,2265.64
0.0382709,2278.05
0.038437,2285.62
0.0384665,2298.59
0.0386084,2307.03
0.0391059,2318.82
0.0395113,2333.27
0.039383,2341.74
0.0396501,2355.06
0.0398231,2364.49
0.039979,2376.55
0.0404479,2389.1
0.0403664,2396.95
0.0408237,2411.72
0.041044,2419.4
0.041279,2431.05
0.0414917,2444.55
0.0415734,2453.23
0.041806,2469.45
0.0421249,2477.45
0.0423643,2490.42
0.0424696,2501.7
0.0425574,2511.57
0.0428202,2528.34
0.0430048,2534.94
0.0436386,2567.07
0.0439805,2573.26
0.044053,2585
0.0442875,2591.91
0.044026,2603.84
0.044452,2613.69
0.0447066,2625.42
0.0450587,2638.94
0.0452206,2649.48
0.0455611,2662.41
0.0457055,2672.81
0.0459214,2687.51
0.0463038,2699.17
0.0462533,2710.27
0.0466216,2723.63
0.0467467,2733.13
0.0471903,2747.61
0.0474191,2757.88
0.0476821,2772.18
0.0479537,2784.81
0.0482896,2798.29
0.0484133,2810.07
0.0486921,2822.08
0.0486327,2836.63
0.0491646,2847.5
0.0492769,2862.56
0.049464,2868.83
0.0496932,2888.41
0.0498914,2899.78
0.0501103,2913.27
0.0505057,2924.26
0.0507,2937.02
0.0509665,2952.13
0.0511073,2963.71
0.0514309,2977.63
0.051514,2988.99
0.0520409,3002.06
0.0522436,3015.01
0.0523091,3030.47
0.052813,3038.28
0.0528252,3055.49
0.0532183,3066.88
0.0534762,3083.03
0.0541335,3095.58
0.054244,3108.94
0.0541866,3121.83
0.0546542,3134.67
0.0549178,3147.68
0.0551659,3156.31
0.0556646,3177.33
0.0557502,3184.15
0.0556637,3204.42
0.056339,3218.66
0.0564321,3233.29
0.0571079,3245.18
0.0571535,3262.45
0.0577012,3276.67
0.0575485,3287.77
0.0579402,3302.11
0.0584264,3318.34
0.0587365,3331.16
0.0589095,3346.42
0.0593381,3357.08
0.0596442,3374.9
0.0598048,3385.67
0.0600474,3404.26
0.0604923,3415.6
0.0606744,3431.69
0.0611838,3444.49
0.0615347,3460.43
0.0614743,3470.57
0.0618857,3485.94
0.062362,3500.85
0.0624243,3516.7
0.0630989,3529.15
0.0631211,3544.63
0.0634301,3559.69
0.0637549,3573.88
0.0640577,3589.56
0.0642486,3603.44
0.0647507,3618.95
0.065011,3633.74
0.0653129,3649.7
0.0657136,3661.87
0.0660514,3679.94
0.0664943,3692.4
0.0666741,3708.72
0.0667773,3721.83
0.0673692,3739.76
0.0676003,3754.83
0.0680129,3771.08
0.0683204,3786.22
0.0688509,3801.58
0.069058,3816.81
0.0693118,3830.53
0.0698007,3847.14
0.0704436,3861.08
0.0704804,3878.41
0.0706097,3891.79
0.0708736,3909.04
0.07133,3923.26
0.0718835,3941.93
0.0721629,3955.32
0.0725886,3971.52
0.0729783,3986.07
0.0731504,4000.52
0.0738286,4016.9
0.0739942,4031.98
0.0741647,4048.32
0.0747076,4064.6
0.0751458,4081.73
0.0754706,4096.55
0.0756827,4111.14
0.0760444,4129.37
0.0766447,4142.42
0.0770946,4160.16
0.0776243,4173.19
0.0778476,4190.22
0.0781284,4208.51
0.0782392,4220.92
0.0787275,4241.01
0.0791025,4254.36
0.0794915,4269.98
0.0802388,4285.1
0.0806258,4300.79
0.080695,4315.67
0.0814437,4332.14
0.0818202,4349.25
0.0819615,4364.31
0.0825297,4382.04
0.0830297,4396.56
0.0833634,4412.67
0.0835768,4428.01
0.0840363,4443.62
0.0845235,4465.22
0.084942,4470.23
0.0852751,4489.97
0.085572,4506.98
0.0861487,4522.71
0.0867223,4540.48
0.0870394,4555.22
0.0875089,4569.91
0.087787,4588.36
0.0883178,4604.02
0.0887623,4621.24
0.088944,4634.35
0.0893155,4653.23
0.0899692,4671.71
0.0902094,4684.81
0.0907068,4703.31
0.0914223,4721.55
0.0918146,4737.77
0.0920403,4755.86
0.0926693,4768.69
0.0933214,4785.75
0.0935349,4803.04
0.0940268,4820.96
0.0943077,4838.4
0.0948623,4855.59
0.0956422,4872.66
0.0960483,4888.81
0.0965976,4905.11
0.0971004,4920.41
0.0974726,4937.91
0.0979549,4951.46
0.0985045,4969.5
0.0991971,4986.86
0.0997283,5002.02
0.100028,5019.68
0.100764,5038.48
0.101181,5053.3
0.101512,5070.47
0.102024,5090.68
0.102826,5097.69
0.103049,5122.05
0.103035,5138.33
0.104493,5156.72
0.104608,5180.38
0.105274,5187.72
0.106347,5196.48
0.106413,5223.36
0.107025,5240.83
0.107698,5258.9
0.107889,5277.1
0.108875,5287.82
0.109691,5313.66
0.110051,5323.62
0.110516,5340.29
0.111448,5357.81
0.111813,5375.16
0.112988,5392.6
0.11299,5409.12
0.11378,5430.3
0.114399,5443.08
0.1148,5458.34
0.115788,5476.3
0.116011,5489.89
0.11687,5506.53
0.117363,5527.51
0.118151,5547.55
0.118863,5559.76
0.119884,5580.51
0.120049,5597.19
0.121063,5609.83
0.121689,5628.52
0.122038,5641.71
0.122994,5657.82
0.123924,5675.24
0.124514,5692.52
0.125226,5706.75
0.126026,5721.56
0.126629,5741.58
0.127371,5758.19
0.128262,5774.68
0.128888,5791.12
0.129545,5804.39
0.130667,5821.85
0.131336,5836.85
0.131941,5853.06
0.132742,5869.84
0.133509,5884.06
0.13421,5899.71
0.135304,5912.41
0.136038,5928.72
0.136942,5946.6
0.137704,5960.68
0.138742,5975.39
0.139861,5995.12
0.14056,6007.93
0.141664,6020.79
0.142139,6038.15
0.143333,6056.34
0.144244,6071.65
0.144922,6082.39
0.146483,6091.62
0.147539,6117.68
0.148152,6135.12
0.149259,6142.58
0.150145,6159.49
0.151197,6171.66
0.152571,6187.96
0.15322,6202.6
0.154344,6217
0.155474,6228.96
0.156716,6242.1
0.157831,6257.71
0.158877,6272.04
0.159874,6284.94
0.160745,6297.25
0.162363,6312.81
0.163445,6326.35
0.164534,6337.17
0.1658,6351.62
0.166793,6366.56
0.168047,6377.23
0.169416,6393.98
0.170664,6403.64
0.17176,6420.09
0.173002,6430.4
0.174215,6442.9
0.17577,6455.06
0.177285,6470.13
0.178397,6479.75
0.179734,6490.02
0.181193,6504.84
0.182884,6517.95
0.184175,6529.67
0.185448,6540.39
0.18722,6551.07
0.188619,6563.52
0.190028,6575.06
0.19154,6584.49
0.192957,6597.33
0.194731,6609.55
0.196375,6620.99
0.197971,6628.41
0.199553,6639.97
0.200982,6652.67
0.202825,6663.91
0.204503,6673.42
0.206307,6683.85
0.207947,6694.78
0.209373,6704.81
0.211302,6712.77
0.212912,6722.78
0.214734,6735.24
0.216665,6743.99
0.218518,6753.93
0.220128,6762.6
0.222113,6770.42
0.224106,6782.3
0.225723,6789.25
0.227476,6798.61
0.22944,6810.71
0.231242,6819.92
0.233364,6828.74
0.23511,6834.44
0.237222,6841.08
0.238969,6850.18
0.241043,6861.4
0.242946,6868.73
0.244821,6876.89
0.246975,6886.15
0.249126,6894.27
0.251252,6900.7
0.253247,6908.12
0.255181,6915.72
0.257523,6925.14
0.259732,6935.6
0.261802,6937.85
0.26377,6944.99
0.265935,6954.65
0.268274,6961.76
0.270346,6968.63
0.272692,6973.83
0.274855,6980.34
0.277125,6989.99
0.279374,6995.12
0.283405,7089.75
0.292244,7122.79
0.302197,7124.84
0.312106,7135.21
0.321574,7149.49
0.330879,7163
0.340608,7180.39
0.349834,7194.34
0.359397,7210.07
0.369165,7228.58
0.378788,7241.91
0.388391,7255.25
0.398209,7269.39
0.408011,7281.05
0.417547,7295.58
0.427445,7311.57
0.437105,7323.03
0.446986,7332.96
0.456869,7346.01
0.466564,7356.625
0.476315,7366.85
0.486626,7379.87
0.496275,7388.6
0.50612,7401.94
0.516421,7413.17
0.526049,7421.21
0.536165,7429.26
0.54615,7440.56
0.556437,7449.73
0.566386,7460.36
0.575898,7470.84
0.586508,7479.79
0.596639,7489.31
0.606539,7496.81
0.616891,7504.67
0.627066,7516.59
0.637366,7526.06
0.647328,7534.39
0.657486,7542.16
0.667665,7548.77
0.678405,7559.04
0.688116,7566.52
0.698191,7576.14
0.708283,7582.62
0.718716,7591.17
0.728731,7598.46
0.7391,7607.8
0.749027,7613.29
0.759182,7624.33
0.769012,7630.3
0.779364,7639.84
0.78955,7648.08
0.799562,7653.7
0.809925,7661.81
0.819742,7670.72
0.830065,7678.88
0.839928,7686.02
0.85031,7694.43
0.860681,7699.9
0.870784,7707.35
0.881011,7715.94
0.890628,7721.65
0.900824,7729.98
0.910887,7737.41
0.920882,7744.53
0.93081,7751.36
0.940807,7758.27
0.950752,7764.57
0.960632,7774
0.970689,7781.77
0.980575,7788.92
0.990526,7794.56
1.00083,7801.62
1.01037,7808.93
1.02056,7816.54
1.03037,7822.56
1.04014,7830.97
1.05031,7838.91
1.06018,7843.6
1.07015,7850.94
1.08009,7858.55
1.08966,7863.77
1.09994,7872.35
1.1097,7875.53
1.1198,7885.01
1.1296,7892.98
1.1395,7897.2
1.14957,7907.48
1.15928,7910.79
1.16892,7918.02
1.17894,7923.22
1.18901,7932.87
1.19862,7937.23
1.20869,7943.93
1.21816,7951.54
1.2284,7959.23
1.23823,7963.14
1.24814,7971.64
1.25808,7978.57
1.2679,7982.31
1.27792,7990.76
1.28758,7997.48
1.29749,8004.2
1.30721,8015.14
1.3176,8026.16
1.32732,8022.92
1.33714,8029.89
1.34688,8035.36
1.35666,8041.5
1.36639,8046.53
1.37628,8053.02
1.38619,8057.96
1.39605,8065.1
1.40606,8072.02
1.41553,8075.66
1.4252,8082.66
1.43501,8089.26
1.44493,8095.82
1.45494,8102.39
1.46441,8107.74
1.47427,8112.04
1.48413,8118.03
1.49394,8123.49
1.50372,8132.03
1.51336,8137.89
1.52328,8145.01
1.53312,8147.35
1.54279,8154.75
1.55265,8160.17
1.56257,8163.2
1.57275,8171.97
1.58219,8178.93
1.59182,8182.45
1.60204,8188.18
1.61155,8193.86
1.62111,8198.12
1.63114,8205.67
1.6407,8210.45
1.65082,8217.06
1.66025,8222.7
1.67022,8227.07
1.67965,8232.1
1.6895,8240.63
1.69953,8244.94
1.70942,8250.22
1.71942,8257.16
1.72888,8259.24
1.73892,8263.27
1.74888,8272.67
1.75876,8276.07
1.76823,8283
1.77832,8285.84
1.78793,8293.61
1.79775,8296.17
1.80805,8303.9
1.81787,8310.38
1.82725,8314.39
1.83724,8318.44
1.84719,8321.47
1.85696,8327.99
1.86694,8333.28
1.87672,8336.12
1.88681,8343.48
1.89638,8348.43
1.90617,8353.2
1.91601,8358.92
1.92596,8364.46
1.93604,8370.48
1.94563,8373.47
1.95556,8379.3
1.96543,8382.89
1.97535,8389.42
1.98536,8394.39
1.99514,8396.35
2.005,8401.16
2.01513,8408.67
2.02504,8411.14
2.03479,8416.16
2.04481,8421.75
2.05492,8426.42
2.06481,8429.16
2.0748,8434.72
2.08451,8439.21
2.09474,8443.74
2.10457,8450.44
2.11469,8454
2.12432,8458.12
2.13411,8462.42
2.14398,8467.66
2.15417,8472.37
2.16405,8477.2
2.17437,8480.67
2.18411,8485.21
2.19387,8490.95
2.20393,8493.76
2.21392,8499.07
2.2241,8503.7
2.23407,8511.58
2.24432,8511.26
2.25407,8516.11
2.26411,8518.16
2.2743,8522.61
2.28424,8529.71
2.294,8530.87
2.3039,8536.08
2.31422,8542.31
2.32437,8543.19
2.33445,8547.78
2.34439,8552.59
2.35423,8557.49
2.36437,8561.15
2.37454,8566.53
2.38462,8570.71
2.39474,8572.64
2.40446,8577.22
2.41448,8581.34
2.42502,8585.75
2.43498,8590.46
2.44512,8595
2.45505,8596.63
2.46503,8600.37
2.47545,8603.57
2.4852,8606.93
2.49545,8612.02
2.50554,8614.84
2.51592,8619.19
2.52596,8622.33
2.53587,8625.67
2.54601,8629.36
2.55597,8635.8
2.56627,8637.34
2.5763,8644.04
2.58649,8644.86
2.59678,8648.91
2.60665,8652.78
2.61677,8655.63
2.62705,8658.48
2.63714,8664.9
2.64743,8666.78
2.65782,8669.37
2.66811,8670.23
2.67882,8677.05
2.68843,8682.42
2.69893,8682.4
2.709,8688.78
2.71951,8689.01
2.72985,8694.11
2.73994,8696.39
2.75002,8701.05
2.76025,8704.37
2.77053,8710.23
2.78072,8708.19
2.79071,8714.31
2.80132,8718.43
2.81139,8720.51
2.82172,8724.38
2.83228,8728.52
2.84259,8731.5
2.85297,8733.32
2.86327,8736.23
2.87388,8740.49
2.88386,8742.03
2.89446,8744.79
2.90434,8748.22
2.91547,8752.3
2.92499,8757.3
2.9362,8757.63
2.94614,8769.57
2.95646,8763.3
2.9667,8767.93
2.97727,8770.88
2.98755,8773.22
2.99792,8776.04
3.00822,8778.8
3.01903,8781.62
3.02882,8782.75
3.03941,8785.95
3.04988,8791.24
3.06029,8792.89
3.07072,8795.33
3.0811,8796.02
3.09136,8801.8
3.10193,8804.3
3.11247,8806.6
3.12295,8811.64
3.1336,8813.66
3.14415,8814.39
3.15466,8817.28
3.16532,8821.52
3.17553,8821.8
3.18608,8826.18
3.19666,8829.87
3.20719,8829.45
3.21764,8833.67
3.22816,8834.29
3.23828,8836.97
3.24903,8840.42
3.25968,8845.79
3.27018,8847.34
3.28069,8848.67
3.29095,8850.65
3.30155,8852.61
3.31207,8856.67
3.3227,8860.46
3.33334,8861.62
3.34412,8863.5
3.35479,8866.28
3.36512,8865.65
3.37584,8868.89
3.38634,8872.06
3.39707,8874.625
3.40759,8876.84
3.41861,8880.09
3.42912,8878.82
3.43981,8883.84
3.45015,8885.43
3.46088,8889.11
3.47132,8892.1
3.48214,8894.3
3.49284,8893.24
3.5036,8896.14
3.51443,8898.66
3.52512,8900.17
3.53559,8904.79
3.54639,8904.21
3.55724,8908.11
3.56787,8909.53
3.57881,8912.27
3.58945,8911.8
3.6003,8915.49
3.61124,8918.16
3.62204,8920.6
3.63307,8922.8
3.64396,8923.59
3.65467,8927.64
3.66537,8929.19
3.6763,8930.81
3.68743,8930.54
3.69806,8934.88
3.70911,8936.02
3.72006,8937.6
3.73062,8938.52
3.74177,8941.45
3.7526,8942.49
3.76362,8947.39
3.77446,8946.93
3.78554,8947.17
3.79647,8950.87
3.80766,8951.06
3.81837,8952.21
3.82975,8957.09
3.84075,8958.33
3.85161,8959.26
3.86265,8963.25
3.87385,8962.28
3.88496,8963.66
3.89602,8965.05
3.90726,8967.89
3.91825,8967.17
3.92947,8972.55
3.94059,8969.57
3.95167,8973.61
3.96259,8974.19
3.97357,8978.6
3.985,8980
3.9959,8981.35
4.00708,8982.36
4.01845,8983.59
4.0297,8984.7
4.04072,8985.72
4.05181,8988.87
4.06314,8991.11
4.07444,8992.73
4.08591,8991.95
4.09717,8995.53
4.10843,8993.61
4.11962,8996.55
4.13091,8997.75
4.14253,9000.98
4.15385,9000.82
4.16524,9003.45
4.17666,9003.15
4.18785,9004.21
4.19953,9006.32
4.2108,9007.35
4.22221,9009.12
4.23362,9009.96
4.24539,9010.29
4.2566,9010.79
4.26795,9014.81
4.27974,9013.92
4.29144,9016.95
4.30274,9018.66
4.31426,9019.89
4.3261,9019.84
4.33746,9023.04
4.34925,9022.31
4.36103,9023.12
4.37283,9025.29
4.38464,9026.7
4.39636,9026.48
4.40807,9028.2
4.41951,9028.23
4.43121,9028.875
4.44322,9032.54
4.45457,9031.53
4.46685,9033.29
4.47875,9032.54
4.49041,9033.07
4.50202,9033.59
4.51422,9036.69
4.52605,9036.97
4.53799,9039.37
4.55014,9040.55
4.56191,9040.54
4.57381,9041.64
4.58603,9040.79
4.59813,9044.51
4.61021,9043.87
4.62249,9045.74
4.63469,9045.04
4.64698,9045.42
4.65882,9046.2
4.6712,9047.01
4.68344,9049.73
4.69598,9050.75
4.7082,9048.91
4.7204,9049.84
4.7327,9050.57
4.74491,9050.87
4.75749,9051.24
4.76984,9052.41
4.782,9054.67
4.79482,9055.11
4.80743,9054.75
4.81976,9054.82
4.83226,9056.01
4.84496,9055.77
4.85753,9057.86
4.87034,9058.58
4.88298,9057.09
4.896,9058.23
4.90841,9058.72
4.92133,9059.79
4.93439,9060.2
4.94742,9059.9
4.96014,9059.38
4.97353,9058.17
4.98581,9059.33
4.99902,9058.08
5.01197,9055.82
5.0253,9061.48
5.03829,9060.45
5.05143,9063.39
5.06452,9059.26
5.07783,9059.42
5.09041,9060.28
5.10381,9062.25
5.11753,9061.6
5.1309,9062.12
5.14452,9062.13
5.15792,9061.6
5.17144,9060.87
5.185,9061.41
5.19866,9059.86
5.21272,9060.34
5.22641,9061.28
5.24023,9055.02
5.25422,9058.76
5.26811,9057.01
5.2818,9057.06
5.29584,9056.83
5.31036,9054.38
5.32428,9053.16
5.33858,9054.73
5.35264,9052.1
5.3667,9050.17
5.38123,9051.25
5.39555,9049.66
5.40991,9048.52
5.42464,9045.92
5.43914,9045.98
5.45388,9043.47
5.46883,9045.12
5.48351,9042.17
5.49858,9039.63
5.51313,9038.58
5.52836,9035.98
5.54364,9031.34
5.55843,9032.76
5.5738,9028.64
5.58885,9026.61
5.604,9023.95
5.61975,9022.81
5.63474,9017.7
5.65021,9016.8
5.66564,9015.21
5.68132,9009.25
5.69667,9008.37
5.71232,9003.82
5.72792,9001.22
5.74379,8995.8
5.75978,8993.61
5.77532,8985.73
5.79134,8988.46
5.8073,8983.06
5.82317,8975.3
5.83965,8971.48
5.85586,8964.52
5.87206,8957.9
5.88836,8954.55
5.90477,8948.29
5.92096,8941.69
5.93746,8937.89
5.95396,8928.78
5.97044,8922.06
5.98719,8914.65
6.00355,8906.28
6.01992,8899.72
6.03652,8893.85
6.05326,8883.9
6.06971,8876.04
6.08672,8867.21
6.10336,8859.64
6.12004,8849.05
6.13709,8839.29
6.1537,8829.12
6.17084,8816.88
6.18803,8808.51
6.20474,8795.67
6.22195,8784.35
6.23893,8773.21
6.25613,8759.6
6.27322,8744.46
6.29086,8732.17
6.30801,8718.94
6.32556,8701.4
6.34241,8687.97
6.35994,8674.17
6.37714,8655.58
6.39487,8641.59
6.41227,8620.06
6.42936,8603.68
6.44736,8586.75
6.46478,8566.15
6.48214,8542.54
6.49978,8519.07
6.51813,8494.72
6.53591,8471.34
6.55357,8442.17
6.57226,8399.75
6.59133,8347.13
6.61178,8257.07
9.52636,-4906.96