File: data/PrimaryData/Aluminium_6061/Tensile_test_5.csv
Displacement (mm),Load (N)
0.000200773,0.216887
0.00016093,0.185938
0.000143649,1.94406
0.000151684,2.25337
0.000346923,3.64342
0.000315025,5.3766
0.00060485,7.27814
0.000493161,7.25729
0.000376499,9.54797
0.000928515,10.7972
0.000447875,11.3818
0.000608095,12.8586
0.000450105,14.9128
0.000563716,15.6519
0.000706708,19.1355
0.000575265,21.6391
0.000469324,23.6118
0.000803691,25.364
0.000940404,28.6235
0.000647922,29.9642
0.000873941,34.7368
0.000807697,37.784
0.000809521,41.1193
0.000927821,44.3817
0.0010592,49.2694
0.00113357,54.1316
0.0010635,58.4861
0.00142154,62.3806
0.0014272,65.7573
0.00139312,71.7522
0.00151994,75.9597
0.0015727,80.5262
0.00162488,85.9318
0.00165587,89.9635
0.00180212,94.5373
0.00198261,99.114
0.00182262,104.992
0.0022218,111.797
0.00225397,117.146
0.00211504,123.776
0.00245332,130.368
0.00246054,136.46
0.00270076,144.197
0.00278005,151.367
0.00281302,159.499
0.0031088,166.115
0.00335962,174.229
0.00308239,182.341
0.00347637,189.908
0.00360099,195.26
0.00370828,203.514
0.00376444,211.33
0.00392467,217.572
0.00421796,227.975
0.00424328,235.291
0.00452436,245.899
0.00443542,254.124
0.00485139,264.275
0.00470808,272.79
0.00501532,283.633
0.00506237,291.451
0.00532784,300.515
0.00547375,309.982
0.00551845,318.348
0.00569513,328.114
0.00595757,338.78
0.00644897,350.811
0.00654932,360.27
0.00647658,370.152
0.00676426,381.845
0.00715587,391.289
0.0071014,401.703
0.00734033,410.429
0.00731112,420.973
0.00760147,430.582
0.00755243,439.597
0.00780465,450.169
0.00813344,459.985
0.00816811,471.128
0.00832379,480.512
0.00836322,489.501
0.00870141,500.188
0.00853353,507.514
0.00894276,515.708
0.0090188,524.908
0.00892926,533.565
0.00948157,541.19
0.00922727,545.476
0.00943902,545.744
0.00941352,543.002
0.00935518,540.046
0.00918488,538.843
0.00923251,537.716
0.00912415,542.319
0.00938096,544.921
0.00949158,548.848
0.00961779,552.334
0.00949379,556.997
0.00995189,562.094
0.00975618,568.603
0.00987716,573.239
0.0100846,580.467
0.00997608,587.307
0.010307,593.199
0.0104072,598.269
0.0104657,603.349
0.0105359,608.696
0.010414,616.211
0.0109331,623.53
0.0109827,629.822
0.0109246,635.301
0.0110802,642.173
0.0111982,646.546
0.0111805,653.035
0.0113305,659.908
0.0115155,668.668
0.0116822,676.303
0.0117485,682.203
0.0121635,688.049
0.0123895,695.062
0.0123693,702.147
0.012415,710.812
0.012443,719.092
0.0125169,724.67
0.0127331,731.963
0.0128723,738.46
0.0130027,747.864
0.0130438,757.98
0.0132527,766.439
0.0134497,771.541
0.0136666,779.304
0.0138403,787.577
0.0141036,799.149
0.0142529,806.885
0.0141725,813.668
0.0145077,820.611
0.0145706,827.964
0.0147013,839.61
0.0149201,849.518
0.0151682,859.17
0.0152598,867.284
0.0154224,874.676
0.0154938,885.558
0.0157394,897.282
0.0157744,905.64
0.0162303,911.79
0.0162637,921.483
0.0166113,932.198
0.0166609,943.716
0.0169177,953.632
0.0166185,961.519
0.0171836,971.194
0.0171269,983.513
0.0174328,994.829
0.017528,1003.43
0.0176706,1011.33
0.0179673,1022.8
0.0181462,1033.98
0.0185854,1045.81
0.01867,1055.09
0.0184949,1064.25
0.0188917,1076.82
0.0190404,1090.22
0.019232,1100.62
0.0193741,1109.65
0.0195642,1122.88
0.0200589,1135.71
0.019935,1145.88
0.0201731,1154.12
0.0202295,1166.44
0.0205715,1180.08
0.0208301,1190.52
0.0208274,1201.14
0.0212808,1212.84
0.021425,1226.82
0.0215635,1237.5
0.0216578,1247.29
0.0219045,1258.75
0.0221195,1273.09
0.0225897,1287.1
0.0225811,1296.88
0.0228702,1308.31
0.023306,1323.97
0.0235288,1335.43
0.0235898,1345.59
0.0237631,1359.51
0.0240451,1373.71
0.0244313,1385.11
0.024449,1397.03
0.0246633,1409.64
0.0250669,1425.04
0.0250091,1435.5
0.0252514,1446.96
0.0257615,1462.06
0.026075,1476.31
0.0259887,1486.31
0.0264043,1499.44
0.0266793,1514.49
0.0267282,1528.07
0.0268038,1538.58
0.0273867,1554.77
0.0275755,1569.08
0.027755,1581.77
0.0281227,1594.81
0.0283712,1611.4
0.02848,1623.69
0.028925,1636.31
0.0288896,1650.56
0.0292623,1665.53
0.0293701,1675.52
0.0296113,1690.71
0.0299215,1706.06
0.0302857,1718.63
0.0305897,1731.59
0.0306231,1747.21
0.0308402,1760.27
0.0310394,1774.28
0.031315,1790.79
0.0314936,1804.24
0.0317984,1818.24
0.032207,1833.37
0.0322472,1848.06
0.0325912,1860.05
0.0329754,1877.42
0.0330513,1891.45
0.0333422,1905.04
0.033711,1920.14
0.034065,1936.5
0.0342095,1948.29
0.0345893,1964.09
0.0347667,1978.99
0.0349808,1992.57
0.0351022,2010.54
0.0356313,2027.01
0.035703,2040.94
0.0360387,2055.97
0.036209,2072.82
0.0365797,2086.74
0.0367626,2102.82
0.0372323,2118.22
0.0375831,2131.55
0.0379451,2151.51
0.038066,2165.8
0.0380741,2177.75
0.0385273,2197.32
0.0390277,2212.62
0.0388172,2227.94
0.0394952,2246.37
0.0398334,2259.66
0.0398407,2276.63
0.0403028,2293.92
0.0405181,2307.16
0.0408296,2326.64
0.0411786,2341.95
0.0412643,2356.02
0.0417519,2371.8
0.0418736,2386.04
0.0421188,2401.32
0.0425595,2419.79
0.0427203,2430.79
0.0430623,2449.25
0.0429222,2461.95
0.0434693,2476.71
0.043952,2493.91
0.0440104,2504.98
0.044275,2522.81
0.0447336,2536.36
0.0449753,2549.6
0.0451733,2566.96
0.0452873,2577.88
0.045683,2594.31
0.0460241,2606.64
0.0460837,2618.91
0.0464827,2635.59
0.0468582,2647.49
0.0470816,2662.08
0.0472998,2673.59
0.0474211,2685.93
0.0478773,2702.15
0.0479133,2713.17
0.0481817,2729.97
0.0482515,2740.45
0.0486656,2754.16
0.0486802,2766.52
0.0492218,2780.16
0.0494037,2795.73
0.0496858,2806.39
0.0497349,2822.7
0.0501026,2833.42
0.050306,2848.35
0.0506223,2861.29
0.0509002,2872.5
0.0509941,2886.43
0.0514339,2898.68
0.0516685,2914.72
0.051557,2925.69
0.0522372,2942.29
0.0523445,2952.71
0.0524789,2967.16
0.0527599,2979.96
0.0530685,2993.19
0.0533154,3006.5
0.0534892,3018.94
0.0537486,3032.01
0.0540654,3044.17
0.0542044,3059.67
0.0544528,3071.12
0.0546896,3086.23
0.0549396,3097.11
0.0551561,3114.55
0.0554163,3125.38
0.055613,3139.75
0.0560105,3151.62
0.056136,3167.27
0.0566477,3178.66
0.0566393,3193.73
0.0568053,3206.04
0.0572164,3221.67
0.0574295,3236.26
0.0577455,3252.05
0.0577225,3264.21
0.0581413,3278.69
0.058405,3294.11
0.0586241,3307
0.0589165,3320.74
0.0591815,3335.65
0.0596614,3350.64
0.0598627,3366.83
0.0601252,3380.18
0.0602848,3396.01
0.0606352,3409.89
0.0611039,3427.42
0.0612839,3440.06
0.0613605,3456.78
0.062365,3490.65
0.0622859,3499.28
0.0625775,3512.56
0.0626012,3525.64
0.0629527,3539.45
0.0632848,3554.56
0.0635272,3571.53
0.0637674,3585.13
0.0641817,3601.91
0.0643692,3617.07
0.0647734,3633.77
0.0650696,3648.07
0.065097,3664.81
0.0654908,3680.71
0.066091,3697.29
0.066416,3713.62
0.0664068,3728.79
0.0668725,3746.79
0.0671017,3761.92
0.0675944,3779.77
0.0678118,3793.62
0.0683745,3811.32
0.0684527,3827.76
0.0685976,3843.58
0.0690834,3860.86
0.0695229,3878.13
0.0699423,3896.04
0.0700335,3911.94
0.0702367,3930.19
0.0706607,3947.25
0.0710776,3963.63
0.0713632,3982.56
0.0718612,3998.69
0.0718807,4016.16
0.0721802,4034.42
0.0725807,4049.86
0.0730444,4069.24
0.0734151,4085.75
0.0734392,4103.62
0.0740395,4120.37
0.0742445,4138.65
0.0748391,4155.86
0.0749059,4171.88
0.0753101,4191.44
0.0757899,4209.68
0.0759275,4226.94
0.0763037,4246.52
0.0766686,4262.16
0.0772797,4281.21
0.0775045,4299.4
0.0776773,4316.95
0.0782506,4336.51
0.0783972,4353.46
0.0786489,4373.72
0.0792337,4392.77
0.0795812,4411.31
0.079736,4430.61
0.0803876,4450.32
0.080685,4468.38
0.0810624,4489.03
0.0813218,4506.88
0.0819519,4526.39
0.0823193,4546.22
0.0826249,4566.57
0.0829074,4584.37
0.0833539,4605.1
0.0837521,4624.49
0.0840367,4641.83
0.0845784,4663.15
0.0851105,4682.62
0.0852574,4702.65
0.0856705,4722.94
0.0858491,4741.03
0.0863773,4761.53
0.0869222,4780.99
0.0872742,4801.16
0.0876136,4819.7
0.0880999,4840.56
0.088628,4861.62
0.0887034,4881.72
0.0892829,4902.21
0.0900764,4922.45
0.090174,4942.38
0.0906926,4964.38
0.0911496,4984.63
0.0916892,5007.06
0.0919704,5026.14
0.0923022,5048.32
0.0929615,5067.46
0.0933453,5089.39
0.0939178,5111.19
0.0944754,5130.22
0.094785,5151.44
0.0953029,5173.31
0.0957256,5194.7
0.0960424,5213.93
0.0964796,5234.16
0.0971902,5257.38
0.0975095,5277.79
0.0983125,5297.6
0.0986564,5320.53
0.0990143,5342.93
0.0997642,5363.69
0.099804,5384.03
0.100561,5407.11
0.100796,5429.42
0.10148,5450.61
0.102033,5472.23
0.102697,5494.13
0.103088,5516.98
0.103602,5538.28
0.103961,5559.53
0.104962,5585.11
0.105437,5606.99
0.105922,5626.57
0.106376,5648.89
0.106771,5671.11
0.10763,5692.67
0.108227,5715.29
0.108809,5736.16
0.109354,5759.42
0.109794,5781.26
0.110298,5803.4
0.11095,5822.77
0.111637,5846.8
0.11222,5869.55
0.11291,5892.67
0.113249,5915.07
0.114231,5935.43
0.114504,5958.44
0.115494,5982.73
0.116077,6005.04
0.116855,6026.26
0.117144,6048.43
0.118158,6071.52
0.118718,6095.31
0.119315,6117.47
0.119938,6136.23
0.120692,6159.93
0.121317,6182.82
0.122135,6206.15
0.122695,6229
0.1235,6250.28
0.124433,6269.94
0.125023,6293.37
0.125739,6316.47
0.126573,6338.99
0.127032,6360.81
0.128071,6381.05
0.128632,6402.19
0.129489,6424.86
0.130503,6448.43
0.131006,6470.41
0.132313,6492.89
0.133028,6514.38
0.133861,6535.54
0.134868,6558.52
0.135526,6580.52
0.136415,6601.7
0.137202,6624.49
0.138557,6646.06
0.13925,6665.85
0.140378,6687.93
0.141328,6710.24
0.142103,6731.11
0.143382,6751.84
0.144162,6771.55
0.14512,6792.34
0.146135,6812.41
0.147419,6833.56
0.148487,6855.13
0.149392,6874.13
0.150687,6897.45
0.151723,6918.33
0.15277,6938.98
0.15406,6957.62
0.155033,6978.28
0.156518,6999.13
0.157725,7018.05
0.159088,7040.08
0.160359,7060.75
0.161373,7078.17
0.163158,7097.02
0.164397,7116.08
0.165409,7133.14
0.166889,7152.07
0.168098,7170.56
0.169575,7191.54
0.171038,7208.08
0.17259,7226.65
0.174082,7246.3
0.17538,7262.79
0.17736,7280.63
0.17832,7298.68
0.180096,7315.02
0.181579,7333.22
0.183144,7349.74
0.184775,7366.7
0.186606,7386.62
0.188242,7401.28
0.189829,7419.22
0.191416,7434.91
0.193226,7449.63
0.195158,7466.09
0.196853,7481.42
0.198782,7496.75
0.200608,7510.63
0.202273,7526.52
0.204248,7541.4
0.20607,7555.85
0.208076,7572.17
0.210009,7584.88
0.211969,7601.64
0.213909,7617.04
0.215784,7630.1
0.217872,7641.8
0.22003,7655.46
0.2219,7670.01
0.224423,7682.09
0.226404,7695.15
0.228767,7707.35
0.230717,7720.3
0.232891,7732.92
0.235369,7746.31
0.237275,7758.88
0.239404,7768.94
0.242017,7781.92
0.243966,7792.76
0.24654,7804.64
0.248977,7817.25
0.251235,7826.83
0.253623,7838.3
0.256264,7848.47
0.258631,7860.04
0.261005,7870.17
0.263475,7881.28
0.265848,7892.08
0.268266,7902.7
0.270989,7912.39
0.273591,7922.67
0.276356,7932.77
0.278848,7944.17
0.281515,7953.51
0.284204,7961.39
0.286849,7971.47
0.293096,8073.61
0.304252,8113.36
0.316343,8120.5
0.328002,8139.72
0.339583,8161.23
0.351139,8181.77
0.36298,8204.61
0.374512,8224.34
0.386237,8243.82
0.398149,8265.62
0.409886,8280.91
0.421388,8299.34
0.433286,8316.76
0.445095,8334.44
0.457101,8348.35
0.469366,8367.03
0.481102,8378.45
0.49336,8393.38
0.505514,8409
0.517905,8423.47
0.530239,8435.35
0.542915,8449.58
0.55528,8460.43
0.56758,8472.29
0.580266,8487.03
0.592839,8497.18
0.60514,8507.74
0.617938,8520.93
0.630624,8531.39
0.643081,8541.33
0.655652,8554.42
0.668077,8566.24
0.680814,8572.89
0.693517,8586.6
0.706051,8595.78
0.718659,8606.32
0.731335,8617.61
0.744147,8627.64
0.756546,8635.37
0.769396,8647.33
0.781906,8657.57
0.794561,8666.07
0.80762,8677.05
0.820381,8686.33
0.83281,8692.75
0.84531,8704.99
0.858047,8714.7
0.870808,8722.96
0.883355,8732.47
0.89579,8741.6
0.908101,8748.89
0.920692,8759.79
0.933206,8770.3
0.945972,8778.65
0.958289,8786.43
0.970756,8796.8
0.983145,8803.57
0.995903,8814.81
1.00869,8823.22
1.02099,8829.69
1.03353,8840.67
1.04595,8851.35
1.05833,8857.01
1.07142,8867.98
1.08347,8876.33
1.09609,8883.22
1.10841,8890.56
1.1208,8900.87
1.1332,8906.35
1.14567,8918.17
1.15802,8924.86
1.17035,8932.64
1.18263,8942.21
1.19511,8952.33
1.20767,8957.63
1.22013,8966.59
1.23248,8976.34
1.24475,8984.23
1.26228,8991.83
1.28347,9003.22
1.30461,9005.45
1.32576,9015.76
1.34695,9022.35
1.368,9032.11
1.38929,9040.54
1.41043,9049.09
1.43158,9054.82
1.45277,9062.92
1.47396,9071.29
1.49501,9078.94
1.51629,9085.87
1.53744,9095.17
1.55854,9100.85
1.57973,9110.59
1.60092,9119.32
1.62202,9124.27
1.64326,9131.44
1.66445,9140.36
1.68555,9147.53
1.70674,9154.74
1.72793,9164.89
1.74903,9169.01
1.77027,9175.24
1.79141,9185.3
1.81251,9192.38
1.83375,9198.99
1.85494,9207.86
1.87608,9213.9
1.89727,9219.56
1.91837,9228.26
1.93947,9235.49
1.96071,9243.15
1.9819,9248.23
2.003,9256.31
2.02428,9263.02
2.04538,9271.05
2.06653,9276.37
2.08772,9283.17
2.10891,9291.02
2.13001,9296.78
2.1512,9305.54
2.17239,9311.9
2.19353,9318.61
2.21477,9324.99
2.23592,9330.5
2.25697,9338.91
2.27821,9345.11
2.29935,9352.46
2.3205,9359.56
2.34173,9364.24
2.36288,9371.2
2.38398,9377.37
2.40522,9384.58
2.42636,9391.27
2.4475,9396.72
2.4687,9403.82
2.48989,9409.19
2.51094,9417.12
2.53218,9421.6
2.55332,9427.39
2.57447,9434.7
2.5957,9442.11
2.6169,9446.55
2.63799,9453.9
2.65923,9459.99
2.68042,9463.95
2.70148,9470.23
2.72267,9476.97
2.74386,9482.73
2.76496,9489.37
2.78619,9495.57
2.80739,9500.26
2.82848,9507.68
2.84963,9514.38
2.87087,9518.31
2.89197,9522.63
2.9132,9529.62
2.93435,9533.97
2.95549,9541.57
2.97668,9548.51
2.99788,9550.18
3.01897,9558.12
3.04021,9564.91
3.06136,9570.24
3.08246,9575.86
3.10369,9581.62
3.12484,9584.93
3.14594,9591.13
3.16717,9597.48
3.18832,9602.73
3.20946,9607.42
3.23066,9613.2
3.25189,9617.76
3.27299,9622.2
3.29418,9629.13
3.31533,9631.22
3.33647,9640.4
3.35771,9644.99
3.37886,9647.85
3.4,9654.32
3.42119,9659.01
3.44234,9664.31
3.46348,9668.78
3.48467,9674.66
3.50582,9678.97
3.52696,9684.67
3.54815,9690.94
3.56934,9692.84
3.59049,9699.59
3.61168,9702.71
3.63283,9707.25
3.65397,9712.58
3.67516,9718.76
3.69631,9720.93
3.7175,9723.84
3.73864,9733.02
3.75979,9734.48
3.78098,9741.87
3.80217,9746.1
3.82331,9749.42
3.84446,9753.81
3.86565,9759.08
3.8868,9763.89
3.90794,9767.62
3.92913,9772.7
3.95028,9776.96
3.97147,9781.1
3.99266,9788.2
4.0138,9790.34
4.035,9791.72
4.05614,9797.34
4.07729,9801.22
4.09848,9805.04
4.11967,9811.48
4.14077,9813.65
4.162,9817.88
4.18315,9823.53
4.20425,9826.89
4.22544,9830.96
4.24663,9836.41
4.26778,9838.36
4.28897,9842.65
4.31016,9849.02
4.33126,9851.92
4.35249,9856.25
4.37369,9858.51
4.39478,9862.49
4.41598,9865.15
4.43717,9871.44
4.45831,9873.97
4.4795,9876.3
4.50069,9881.11
4.52175,9884.62
4.54298,9888.25
4.56413,9894.52
4.58527,9897.33
4.60647,9899.64
4.6277,9905.54
4.64875,9907.03
4.66995,9911.64
4.69114,9914.8
4.71224,9916.91
4.73347,9921.08
4.75462,9926.14
4.77572,9929.94
4.79695,9930.23
4.81815,9933.44
4.83929,9935.18
4.86048,9940.3
4.88163,9945.94
4.90273,9948.33
4.92401,9950.82
4.9452,9954.8
4.96625,9958.24
4.98744,9961.86
5.00864,9966.93
5.02973,9968.44
5.05097,9968.52
5.07212,9974.49
5.09321,9977.66
5.11441,9982.35
5.13564,9984.05
5.15674,9985.83
5.17798,9986.91
5.19917,9991.96
5.22022,9995.32
5.24146,9998.07
5.26265,9999.49
5.2837,10002.8
5.30499,10004.7
5.32613,10010.6
5.34723,10013.8
5.36842,10015.2
5.38966,10017.8
5.41071,10019.5
5.4319,10024.9
5.4531,10028
5.47419,10030.4
5.49548,10032.6
5.51667,10031.9
5.53772,10036.5
5.55896,10039.8
5.5801,10042.2
5.60125,10042.4
5.62249,10046.8
5.64368,10047.8
5.66473,10051.5
5.68597,10054.7
5.70716,10057.5
5.7283,10058.1
5.74945,10062.2
5.77064,10063
5.79174,10069.7
5.81298,10069.5
5.83412,10071.6
5.85527,10073.7
5.87646,10076.8
5.8976,10078.1
5.91875,10081.6
5.93994,10085.2
5.96113,10085.1
5.98223,10086.7
6.00342,10091.2
6.02461,10092.1
6.04571,10094.6
6.06695,10096.1
6.08814,10097.8
6.10924,10101.2
6.13043,10104.6
6.15162,10106.5
6.17272,10106.8
6.19391,10108.9
6.2151,10111.7
6.2362,10113.5
6.25739,10117.1
6.27863,10116.1
6.29973,10119.1
6.32096,10120.4
6.34216,10121.9
6.36325,10124
6.3844,10126.7
6.40559,10126.8
6.42674,10129.5
6.44797,10133.1
6.46912,10134.4
6.49026,10136.3
6.51141,10139.2
6.53265,10137.8
6.55374,10140.5
6.57498,10143.5
6.59608,10145.3
6.61727,10146.9
6.63846,10147.3
6.6597,10148.5
6.6808,10150.7
6.70199,10152.7
6.72314,10154.5
6.74428,10152.7
6.76542,10157
6.78666,10157.1
6.80772,10159.8
6.82895,10161.3
6.85014,10161.5
6.87134,10165
6.89248,10167.3
6.91367,10168
6.93477,10168.5
6.95596,10170.5
6.97706,10170.7
6.99825,10171.1
7.01944,10173.7
7.04063,10174.9
7.06178,10176.7
7.08297,10178.3
7.10412,10176.7
7.12526,10180.1
7.14645,10182.1
7.16759,10183.7
7.18869,10183.6
7.20993,10183.9
7.23108,10185
7.25222,10187.5
7.27337,10189.5
7.2946,10189.3
7.3157,10189.1
7.33694,10192.2
7.35804,10191.8
7.37923,10193.6
7.40042,10195
7.42161,10194.5
7.44276,10194.5
7.46399,10196.6
7.48505,10198
7.50624,10198.8
7.52743,10201.6
7.54857,10198.8
7.56972,10200.4
7.59091,10201.5
7.61201,10202.4
7.6332,10203.8
7.65439,10204.7
7.67558,10205.2
7.69673,10205.8
7.71792,10208.1
7.73902,10208.7
7.76021,10205.7
7.7814,10208.2
7.80259,10208.6
7.82374,10209.3
7.84493,10211.3
7.86607,10209.6
7.88722,10208.6
7.90846,10209.8
7.92955,10211.1
7.9507,10211.4
7.97194,10213.2
7.99308,10212.2
8.01427,10211.3
8.03542,10212.9
8.05656,10214.6
8.07766,10213.8
8.09895,10214.4
8.12004,10213.5
8.14123,10211.6
8.16243,10212.7
8.18352,10212.8
8.20472,10213
8.22595,10210
8.2471,10212.1
8.26824,10211.3
8.28943,10212.1
8.31058,10212.1
8.33172,10208.3
8.35292,10208.9
8.37406,10209.4
8.39521,10209.4
8.41644,10209.6
8.43759,10207.8
8.45873,10207.3
8.47997,10205.1
8.50102,10206
8.52221,10202.8
8.54345,10200.3
8.5646,10199.5
8.58579,10196.5
8.60698,10195.8
8.62808,10195.4
8.64918,10193.2
8.67046,10190.1
8.69161,10188.9
8.71275,10186.7
8.73394,10184.8
8.75509,10183.1
8.77623,10178
8.79747,10174.4
8.81861,10175.5
8.83971,10169.8
8.86095,10167
8.88205,10163.2
8.90324,10157.6
8.92443,10153.9
8.94558,10148.7
8.96672,10144.3
8.98796,10139.2
9.0091,10134.8
9.03025,10128.9
9.05149,10122.3
9.07259,10118.5
9.09378,10109.7
9.11497,10103.7
9.13611,10097.3
9.15726,10089.6
9.17845,10083.1
9.19964,10074.5
9.22074,10063.6
9.24198,10055.3
9.26312,10045.4
9.28427,10034.5
9.30546,10021.9
9.3266,10010.5
9.34775,9993.54
9.36898,9978.5
9.39013,9958.34
9.41123,9929.55
9.43247,9843.56
9.45366,9494.18