File: data/PrimaryData/Aluminium_6061/Tensile_004.csv
Displacement (mm),Load (N)
0.000627159,0.643013
0.000561264,0.274639
0.000574875,0.822128
0.000647688,1.99893
0.000464116,0.781029
0.000435935,1.45172
0.000477124,1.7884
0.000475533,1.59409
0.000383998,3.38765
0.000638888,3.31718
0.00052446,3.70667
0.000639157,4.04841
0.000705849,5.87645
0.000644566,6.75462
0.00058111,6.23944
0.000405294,6.82397
0.000574737,8.54578
0.000741008,8.72183
0.00078423,10.1273
0.000523665,9.49967
0.000797952,8.44987
0.000541762,9.0553
0.00054868,9.59762
0.000746169,10.7208
0.00075164,11.6842
0.000743512,13.473
0.000926094,14.6594
0.000808406,16.2141
0.000857662,17.9347
0.000806145,19.744
0.000921394,20.947
0.0010709,22.7048
0.00103709,25.6591
0.000987051,29.0628
0.00110026,31.5795
0.00100091,32.6946
0.000727827,36.7438
0.00115776,38.6748
0.00111238,42.7477
0.00121162,44.6349
0.00127255,48.1518
0.00137269,50.192
0.00161973,54.9399
0.00133325,57.42
0.00120162,60.0684
0.00141951,64.858
0.00164528,68.634
0.00170073,73.8374
0.00178084,78.0936
0.00180968,83.7952
0.00182599,89.8782
0.00215067,95.456
0.00199934,100.774
0.00218858,107.585
0.00241631,114.496
0.00229135,120.671
0.0027838,126.359
0.00257398,132.624
0.00285959,139.719
0.00331237,146.178
0.00334005,151.677
0.00325331,158.052
0.00357136,165.252
0.00361688,172.274
0.00351928,179.126
0.00385017,188.018
0.00394465,196.153
0.0038973,204.104
0.0040951,212.724
0.00450151,221.948
0.00465408,230.202
0.00457991,238.676
0.00459,245.087
0.0049361,255.002
0.00491167,262.361
0.00536501,272.031
0.00523287,280.305
0.00530871,290.137
0.00544212,299.634
0.00575746,307.815
0.00584363,319.018
0.00592595,328.277
0.00621539,335.862
0.00648281,345.031
0.00653544,353.747
0.00658109,363.669
0.00687266,373.531
0.0072742,383.533
0.0074351,394.664
0.00743574,404.126
0.00762066,414.173
0.00779734,424.064
0.00783211,433.834
0.00819015,443.204
0.00821354,452.767
0.00829325,463.002
0.00866017,473.375
0.00859243,484.179
0.00885648,494.9
0.00906075,504.428
0.00938056,514.374
0.00940746,523.145
0.00975692,531.54
0.00974675,539.921
0.00985858,547.065
0.00985447,556.511
0.00992197,565.526
0.0100796,572.727
0.0104928,579.886
0.0105801,587.046
0.0107921,591.387
0.0105808,594.535
0.0110905,599.267
0.0111938,603.146
0.0109734,604.724
0.0108944,607.199
0.0108393,607.648
0.0107983,608.277
0.0110585,611.214
0.0112002,613.394
0.0112443,618.037
0.0112035,620.369
0.0113122,623.196
0.0114934,624.396
0.0111349,624.652
0.0116312,623.021
0.0112406,619.923
0.0114216,617.161
0.0114547,612.921
0.0113263,608.142
0.0110744,604.153
0.0112777,602.658
0.0109932,602.458
0.0113891,604.476
0.0112043,608.325
0.0112653,610.602
0.0114192,613.076
0.0113054,614.335
0.0116598,617.045
0.011609,623.163
0.0116194,628.562
0.0117036,633.543
0.0117666,635.574
0.0120406,639.492
0.0120273,644.101
0.0119257,649.789
0.0122072,655.999
0.0123332,659.416
0.0123519,660.868
0.0123447,665.724
0.0124976,670.22
0.01268,676.461
0.0126925,681.139
0.0126911,682.515
0.0131363,686.971
0.0130401,693.184
0.0131705,698.101
0.0132495,703.579
0.0133381,707.345
0.0133169,711.148
0.0136258,716.408
0.0135363,721.821
0.0136477,725.139
0.0135369,728.614
0.0136017,733.744
0.014033,739.575
0.0139791,745.942
0.0142747,750.824
0.0141631,754.293
0.0142502,759.274
0.0145856,765.715
0.0144944,772.426
0.014454,776.195
0.0146286,779.893
0.014929,789.523
0.015085,796.165
0.0152097,801.151
0.0152416,805.015
0.0153538,812.007
0.0156342,820.124
0.0156191,825.59
0.0155859,830.146
0.0157539,836.318
0.0158179,844.704
0.0159938,850.753
0.0159713,856.033
0.0164189,862.633
0.0165064,871.013
0.0165296,877.856
0.0164895,883.096
0.0167549,888.551
0.0170399,898.197
0.0172541,904.773
0.0172204,910.635
0.0173915,917.503
0.0175049,926.599
0.0175339,932.249
0.0175328,938.22
0.0177266,945.164
0.0180207,954.788
0.0183506,961.909
0.0184134,967.842
0.0185019,977.103
0.0188164,985.648
0.0189224,992.189
0.0190738,998.011
0.0190962,1006.79
0.0193743,1016.41
0.0195237,1020.56
0.0195457,1028.83
0.0196967,1038.91
0.0201953,1046.26
0.0202783,1052.7
0.0205099,1062.77
0.0203796,1069.04
0.0203373,1074.65
0.0206047,1083.47
0.0207328,1093.46
0.0210837,1101.46
0.021033,1109.09
0.0210484,1118.67
0.0214126,1127.43
0.0217806,1132.99
0.0217928,1142.29
0.0221386,1151.81
0.0221731,1159.2
0.022058,1167.65
0.0225153,1179.04
0.0227436,1184.83
0.022804,1193.7
0.022969,1203.09
0.0230765,1210.8
0.0232731,1219.19
0.0234299,1231.42
0.0235234,1238.7
0.0235488,1247.17
0.0240339,1258.94
0.0241363,1266.49
0.0242329,1275.33
0.0244406,1287.15
0.0246422,1295.58
0.0247921,1303.84
0.0249369,1315.23
0.0251602,1323.55
0.0254941,1331.93
0.0258953,1344.35
0.0257684,1352.12
0.0259395,1360.72
0.0263342,1373.97
0.026028,1380.72
0.0264931,1390.69
0.0264888,1404.01
0.0265966,1411.52
0.0269772,1423.98
0.027098,1435.45
0.0272779,1442.67
0.0274776,1454.74
0.0278516,1465.38
0.0279933,1473.96
0.0283951,1487.52
0.0285777,1495.41
0.0285264,1505.55
0.0287948,1518.37
0.0289533,1525.88
0.0292003,1538.7
0.029296,1549.39
0.02961,1558.31
0.0299749,1572.48
0.0300725,1581.21
0.0300928,1592.68
0.0303429,1605.39
0.0304624,1614.2
0.0308571,1627.06
0.0309265,1637.17
0.0310223,1648.64
0.0315733,1659.76
0.0316491,1669.47
0.032064,1682.8
0.031918,1692.51
0.0323126,1702.34
0.0325307,1717.36
0.0327693,1727.71
0.0329444,1741
0.0333225,1750.36
0.0335487,1761.29
0.0336915,1775.68
0.0340156,1784.42
0.0343375,1800.38
0.0345409,1811.04
0.0346449,1823.65
0.0349811,1836.18
0.0352975,1846.75
0.0355479,1862.65
0.035628,1872.25
0.0356728,1885.45
0.0362238,1897.4
0.0364855,1910.77
0.0367328,1923.46
0.0367626,1935.27
0.0370729,1949.63
0.0373461,1959.12
0.0377584,1975.69
0.0378188,1986.73
0.037998,2002.35
0.0383038,2014.05
0.0386577,2025.9
0.0389675,2038.02
0.0391526,2051.15
0.0394089,2065.51
0.039739,2076.57
0.0399593,2092.08
0.0402766,2103.24
0.0406826,2120.76
0.0404691,2131.27
0.0410643,2145.92
0.0412493,2156.65
0.0416432,2173.33
0.0419695,2185.72
0.0420218,2199.99
0.0423608,2211.14
0.0426491,2225.35
0.0431628,2241.45
0.0432468,2255.61
0.04365,2269.15
0.0439064,2282.64
0.0440051,2297.79
0.04455,2311.31
0.0448191,2327.37
0.0448403,2339.92
0.0455201,2354.99
0.0456262,2368.48
0.0456915,2385.01
0.0460169,2398.36
0.046386,2413.68
0.046964,2428.08
0.0470098,2444.82
0.047192,2459.66
0.0476218,2472.88
0.047975,2487.69
0.047929,2502.76
0.0484603,2518.35
0.0487261,2531.85
0.0497973,2581.2
0.0497404,2579.68
0.0500482,2589.84
0.0503317,2601.65
0.0504975,2616.72
0.0506137,2630.72
0.0509647,2644.84
0.0513405,2660.81
0.0515918,2675.55
0.0520131,2692.74
0.0521768,2706.43
0.0524536,2724.1
0.052824,2738.57
0.0530344,2754.48
0.0533145,2770.16
0.0538474,2786.95
0.0541143,2801.74
0.0544957,2818.61
0.0549459,2836.85
0.0552835,2851.73
0.0556949,2869.04
0.0559368,2884.44
0.056426,2902.46
0.0567055,2918.75
0.0568789,2933.94
0.0573881,2952.45
0.0579648,2967.83
0.0580104,2985.15
0.0585306,3000.31
0.0587358,3019.02
0.0590362,3034.61
0.0596225,3051.43
0.0598964,3070.36
0.0603588,3086.46
0.0604171,3103.55
0.0607449,3120.92
0.0611909,3138.54
0.0616389,3156.04
0.062019,3170.45
0.062203,3188.86
0.0626411,3207.24
0.0631157,3222.72
0.063357,3242.57
0.0639278,3257.91
0.0642905,3276.76
0.0646921,3295.17
0.0648818,3311.81
0.0654058,3330.75
0.0658739,3346.54
0.0661877,3366.76
0.0667844,3385.56
0.0670794,3403.39
0.067424,3423.15
0.0679505,3440.61
0.0684807,3457.41
0.0686356,3478.47
0.0692817,3494.11
0.0697007,3512.66
0.069776,3532.15
0.070524,3549.49
0.0708998,3568.65
0.0712233,3587.63
0.0716494,3605.06
0.0718655,3623.73
0.0728072,3641.44
0.0730309,3659.58
0.0733049,3678.8
0.073853,3697.57
0.0741771,3715.37
0.074637,3736.04
0.075092,3753.15
0.0755109,3772.09
0.0762724,3791.33
0.0764332,3809.9
0.0771328,3828.46
0.0775092,3850.08
0.0778748,3868.69
0.0783926,3886.6
0.0787697,3908.56
0.0795155,3927.3
0.0799425,3944.22
0.0804876,3966.48
0.080867,3984.89
0.0814712,4002.32
0.0820256,4024.44
0.0822889,4044.24
0.082751,4063.14
0.0836021,4082.1
0.0844081,4104.58
0.0847945,4120.85
0.0850181,4140.17
0.085887,4162.17
0.0863308,4180.87
0.086769,4197.53
0.0874232,4218.68
0.087868,4239.86
0.0883476,4258.39
0.0889977,4278.07
0.0896318,4297.69
0.0904561,4317.42
0.0908605,4338.82
0.0915404,4357.11
0.0920778,4377.94
0.092774,4397.46
0.093346,4417.09
0.0941846,4437.84
0.0946667,4458.81
0.0953278,4478.09
0.0959595,4495.59
0.0966396,4518.66
0.0973217,4539
0.0982381,4557.15
0.0987363,4577.1
0.0994399,4597.99
0.0999912,4616.69
0.100976,4635.34
0.101623,4655.33
0.102152,4674.48
0.103092,4695.48
0.103878,4714.91
0.104575,4734.15
0.105255,4753.67
0.105924,4774.99
0.106964,4793.86
0.107789,4813.72
0.108347,4832.9
0.108976,4852.54
0.109744,4872.53
0.110873,4890.52
0.111649,4908.88
0.112717,4930.59
0.113511,4952.34
0.114427,4970.5
0.115086,4988.04
0.115816,5006.49
0.116861,5025.09
0.11812,5045.78
0.119036,5063.74
0.119802,5080.68
0.12077,5100.2
0.121986,5117.59
0.122839,5137.44
0.123844,5154.75
0.124932,5172.83
0.125827,5191.96
0.127132,5210.16
0.128081,5231.91
0.12918,5248.73
0.130353,5267.61
0.131478,5286.27
0.132792,5304.91
0.133871,5324.41
0.134878,5342.59
0.136429,5359.94
0.137473,5375.52
0.138534,5392.97
0.139833,5410.8
0.140956,5429.32
0.142455,5445.11
0.143867,5460.8
0.144972,5477.7
0.146209,5494.62
0.147957,5511.99
0.149089,5529.6
0.150418,5545.86
0.151524,5561.18
0.153308,5576.67
0.154574,5593.05
0.156183,5609.86
0.1576,5625.91
0.159267,5643
0.160563,5657.39
0.162308,5671.36
0.163542,5687.37
0.165084,5703.6
0.166906,5718.98
0.168612,5733.63
0.170028,5747.44
0.171997,5763.8
0.173479,5775.57
0.175115,5788.46
0.176997,5802.88
0.178626,5816.12
0.1804,5832.34
0.182098,5846.48
0.183886,5859.49
0.185772,5872.49
0.187676,5885.03
0.189275,5897.43
0.191337,5912.13
0.193134,5923.68
0.194835,5937.88
0.197234,5951.41
0.198867,5962.45
0.201139,5973.86
0.202689,5985.95
0.204965,5997.63
0.206947,6009.79
0.209045,6022.8
0.211232,6034.44
0.213263,6044.84
0.21535,6056.39
0.217462,6065.55
0.219611,6074.63
0.221681,6086.85
0.223726,6097.23
0.225836,6108.95
0.228215,6120.28
0.230283,6130.7
0.232798,6141.51
0.234848,6149.81
0.237189,6159.75
0.239553,6169.74
0.241748,6178.57
0.244382,6188.78
0.24685,6197.29
0.248906,6208.03
0.251645,6218.48
0.253906,6226.24
0.256352,6235.12
0.258693,6242.74
0.261147,6250.36
0.263614,6258.63
0.266073,6267.48
0.268646,6277.51
0.271326,6285.89
0.273575,6294.96
0.276181,6302.4
0.278666,6309.35
0.281355,6317.77
0.283709,6324.36
0.286691,6332.42
0.288911,6341.41
0.291669,6346.21
0.294575,6354.72
0.29709,6362.1
0.299996,6371.58
0.302604,6376.88
0.305436,6382.92
0.308243,6390.46
0.310901,6395.5
0.313501,6402.06
0.31635,6408.44
0.319287,6416.05
0.321826,6421.88
0.324877,6429.35
0.327716,6435.51
0.330502,6441.51
0.33318,6447.87
0.335883,6453.76
0.338958,6458.39
0.341592,6464.92
0.349028,6570.93
0.36098,6594.49
0.373857,6590.89
0.386406,6596.01
0.398914,6610.46
0.411349,6623.09
0.423886,6636.63
0.436141,6651.47
0.44839,6664.34
0.460379,6677.12
0.472733,6691.91
0.484977,6706.89
0.497306,6718.4
0.509729,6731.79
0.521882,6743.53
0.534213,6755.39
0.546327,6769.96
0.558936,6779.52
0.571092,6791.02
0.583563,6803.33
0.595981,6813.4
0.608119,6825.46
0.620614,6835.48
0.633207,6846.85
0.645304,6856.64
0.657833,6868.28
0.670149,6879.77
0.682699,6889.04
0.694929,6899.56
0.707432,6909.16
0.719773,6918.7
0.732136,6928.09
0.744561,6939.62
0.757194,6948.39
0.769745,6960.07
0.78217,6968.62
0.794546,6977.9
0.806984,6987.75
0.819744,6998.11
0.832356,7005.81
0.845144,7014.74
0.857342,7024
0.869742,7033.36
0.882146,7043.44
0.894788,7053.33
0.906972,7060.02
0.919392,7069.94
0.93172,7078.63
0.94425,7088.03
0.956369,7096.19
0.969014,7105.78
0.981216,7112.89
0.993596,7123.5
1.00625,7132.02
1.01872,7141.97
1.03105,7150.44
1.04365,7157.63
1.05611,7164.77
1.06824,7172.84
1.08082,7183.26
1.09315,7192.11
1.10556,7198.82
1.11792,7208.71
1.13016,7214.91
1.14256,7226.66
1.15497,7234.18
1.16747,7242.74
1.17956,7249.1
1.19164,7257.33
1.20438,7266.82
1.21657,7275.27
1.22884,7283.69
1.24147,7291
1.25604,7297.84
1.27719,7307.06
1.29833,7314.16
1.31948,7322.99
1.34067,7331.17
1.36181,7337.82
1.38305,7345.3
1.4042,7353.74
1.42534,7363.06
1.44649,7369.13
1.46768,7376.3
1.48882,7384.18
1.51001,7392.34
1.53111,7401.78
1.5523,7406.91
1.57354,7416.03
1.59473,7422.34
1.61583,7430.48
1.63702,7439.36
1.65821,7446.27
1.67936,7452.89
1.7005,7459.82
1.7217,7467.05
1.74284,7475.57
1.76408,7480.86
1.78522,7489.95
1.80637,7495.8
1.82751,7501.56
1.8487,7511.53
1.8698,7516.29
1.89099,7523.77
1.91218,7531.19
1.93333,7538.63
1.95447,7546.58
1.97567,7552.64
1.99681,7560.97
2.018,7565.1
2.03919,7572.72
2.06034,7579.91
2.08148,7585.71
2.10267,7592.88
2.12382,7600.29
2.14501,7604.88
2.1662,7612.03
2.18735,7621.18
2.20844,7627.88
2.22968,7632.07
2.25078,7640.85
2.27202,7645.22
2.29312,7651.88
2.31431,7659.97
2.33545,7666.03
2.35664,7671.02
2.37784,7679.02
2.39898,7684.02
2.42017,7691.15
2.44132,7699
2.46242,7704.1
2.48365,7707.94
2.5048,7715.84
2.52599,7721.4
2.54713,7728.18
2.56837,7735.43
2.58947,7740.08
2.61066,7745.18
2.63185,7751.94
2.653,7758.96
2.67414,7764.86
2.69533,7770.28
2.71648,7776.45
2.73772,7780.95
2.75882,7789.96
2.78001,7795.32
2.80115,7800.22
2.82234,7804.3
2.84349,7808.67
2.86468,7815.91
2.88582,7823.84
2.90697,7827.25
2.92816,7830.7
2.9494,7837.65
2.9705,7844.27
2.99169,7848.09
3.01283,7855.79
3.03398,7858.84
3.05517,7865.04
3.07631,7871.46
3.09746,7875.99
3.11865,7880.69
3.13984,7888.78
3.16094,7892.08
3.18213,7896.04
3.20332,7902.53
3.22442,7908.68
3.24561,7912.33
3.2668,7917.96
3.28795,7922.55
3.30914,7926.98
3.33033,7934.59
3.35143,7939.79
3.37262,7943.63
3.39381,7950.87
3.415,7953.81
3.43615,7959.22
3.45734,7964
3.47844,7968.47
3.49958,7970.96
3.52077,7977.55
3.54192,7983.23
3.56306,7987.22
3.58426,7993.52
3.6054,7997.14
3.62654,8000.42
3.64778,8006.48
3.66893,8011.19
3.69007,8014.37
3.71131,8018.27
3.73241,8025.06
3.7536,8028.03
3.77479,8032.87
3.79589,8038.23
3.81708,8041.99
3.83827,8047.16
3.85942,8049.72
3.88056,8055.13
3.9018,8059.91
3.9229,8064.82
3.94409,8069.2
3.96528,8071.36
3.98643,8075.45
4.00757,8078.63
4.02876,8083.85
4.04991,8089.28
4.0711,8090.33
4.09234,8096.73
4.11343,8101.18
4.13458,8104.01
4.15577,8109.05
4.17692,8112.29
4.19811,8117.14
4.2193,8118.87
4.2404,8124.12
4.26159,8128.25
4.28283,8131.37
4.30397,8134.47
4.32512,8138.89
4.34631,8143.59
4.36745,8147.89
4.3886,8151.78
4.40979,8155.11
4.43093,8156.96
4.45208,8160.7
4.47327,8165.57
4.49441,8168.89
4.5156,8172.42
4.53675,8174.78
4.55794,8178.68
4.57909,8183.3
4.60028,8187.1
4.62142,8188.98
4.64257,8193.77
4.66376,8197.49
4.68495,8199.57
4.70609,8205.31
4.72724,8206.83
4.74843,8211
4.76958,8212.5
4.79081,8215.55
4.81191,8217.28
4.8331,8221.51
4.85429,8225.52
4.87544,8228.05
4.89658,8232.12
4.91778,8235.7
4.93892,8239.87
4.96007,8243.73
4.9813,8243.58
5.0024,8246.36
5.02359,8251.79
5.04478,8255.24
5.06593,8257.33
5.08712,8260.3
5.10831,8262.07
5.12946,8264.13
5.15055,8268.91
5.17175,8273.5
5.19294,8274.07
5.21408,8277.39
5.23532,8279.91
5.25647,8280.74
5.27761,8285.32
5.2988,8287.6
5.31995,8291.1
5.34114,8293.99
5.36228,8296.44
5.38338,8298.58
5.40457,8303.37
5.42576,8304.28
5.44691,8304.69
5.4681,8309.83
5.48924,8312.32
5.51039,8312.83
5.53158,8317.2
5.55277,8318.77
5.57392,8318.79
5.59511,8323.02
5.61625,8326.47
5.6374,8327.25
5.65864,8332.31
5.67978,8333.65
5.70093,8334.31
5.72207,8338.83
5.74326,8341.61
5.76441,8341.86
5.7856,8346.12
5.80679,8346.79
5.82784,8348.23
5.84908,8352.36
5.87022,8356.1
5.89137,8354.94
5.91261,8358.76
5.93375,8361.27
5.95485,8359.81
5.97609,8363.6
5.99723,8368.57
6.01842,8366.37
6.03962,8371.05
6.06076,8371.66
6.08186,8375.01
6.1031,8377.16
6.12429,8379.99
6.14543,8378.24
6.16658,8381.37
6.18772,8385.18
6.20882,8386.38
6.2301,8389.74
6.25125,8392.49
6.27239,8390.63
6.29359,8392.84
6.31473,8396.75
6.33583,8395.84
6.35711,8398.35
6.37826,8399.47
6.39936,8400.65
6.42059,8404.91
6.44179,8407.55
6.46288,8408.05
6.48412,8407.94
6.50527,8411.31
6.52637,8412.21
6.54756,8416.7
6.56875,8417.11
6.58985,8417.42
6.61113,8419.48
6.63223,8421.03
6.65333,8423.34
6.67457,8423.97
6.69571,8427.41
6.71681,8424.04
6.73809,8426.28
6.75919,8430.89
6.78034,8429.2
6.80157,8432.32
6.82277,8432.52
6.84386,8432.31
6.8651,8435.38
6.88625,8438.12
6.90734,8438.94
6.92858,8439.02
6.94977,8441.49
6.97083,8441.61
6.99211,8444.31
7.01326,8445.89
7.0344,8446.04
7.05554,8446.79
7.07678,8448.43
7.09783,8448.94
7.11912,8450.69
7.14026,8450.93
7.16136,8451.45
7.1826,8452.77
7.20379,8454.51
7.22484,8454.75
7.24613,8456.28
7.26727,8458.5
7.28837,8458.99
7.30961,8458.96
7.33075,8462.27
7.35185,8461
7.37314,8462.46
7.39428,8462.6
7.41538,8463.28
7.43657,8465.36
7.45781,8466.26
7.47886,8467.02
7.50014,8465.53
7.52124,8467.8
7.54234,8467.32
7.56358,8469.74
7.58477,8470.67
7.60587,8470.73
7.62711,8469.75
7.64825,8470.84
7.66935,8471.39
7.69054,8473.27
7.71173,8472.9
7.73283,8473.24
7.75412,8474.5
7.77526,8474.25
7.79636,8475.38
7.81755,8474.41
7.83879,8475.75
7.85984,8474.39
7.88103,8476.26
7.90222,8477.37
7.92337,8476.92
7.94461,8476.6
7.9658,8474.63
7.98685,8477.17
8.00808,8477.59
8.02923,8477.84
8.05033,8479.13
8.07157,8477.61
8.09271,8476.39
8.11381,8475.44
8.13505,8477.32
8.15624,8476.93
8.17738,8476.12
8.19853,8474.96
8.21977,8475.15
8.24082,8475.52
8.26206,8474.67
8.2832,8471.99
8.30435,8472.89
8.32558,8472.97
8.34673,8471.2
8.36787,8471.56
8.38911,8470.03
8.41026,8468.29
8.43135,8466.46
8.45255,8466.97
8.47374,8464.42
8.49484,8465.1
8.51607,8461.76
8.53727,8458.97
8.55841,8458.78
8.57955,8456.46
8.60075,8455.98
8.62189,8452.32
8.64313,8450.26
8.66423,8446.14
8.68537,8444.01
8.70661,8444.01
8.7278,8438.23
8.74895,8436.02
8.77014,8433.37
8.79128,8427.95
8.81238,8426.92
8.83357,8423.05
8.85472,8417.33
8.87586,8412.37
8.89705,8409.21
8.9182,8403.94
8.93939,8399.37
8.96058,8393.24
8.98177,8385.61
9.00292,8381.45
9.02406,8374.57
9.04521,8367.64
9.0664,8361.51
9.08763,8352.61
9.10873,8343.7
9.12992,8337.15
9.15112,8330.03
9.17226,8318.26
9.19341,8308.3
9.2146,8300.47
9.23574,8288.2
9.25689,8277.27
9.27812,8268.41
9.29927,8251.9
9.32046,8238.56
9.34165,8221.09
9.36275,8201.55
9.38394,8179.16
9.40513,8152.54
9.42628,8108.98
9.44752,7877.12
9.45474,7720.43