File: results/V4_Resin/Tensile_Test_01/Tensile_test_1.csv
Displacement,Load
-2.41821e-10,0.0682859
1.53774e-06,0.614699
3.5538e-06,0.964222
5.5848e-06,1.48421
7.5522e-06,1.78904
9.60958e-06,1.8486
1.16269e-05,1.92094
1.35489e-05,2.17638
1.55678e-05,2.37053
1.75926e-05,2.59492
1.95806e-05,2.7638
2.16145e-05,2.86808
2.36309e-05,3.09044
2.56006e-05,3.31642
2.7625e-05,3.48017
2.96335e-05,3.6846
3.16263e-05,4.06506
3.35841e-05,4.16532
3.5593e-05,4.45818
3.76043e-05,4.54196
3.95776e-05,4.7962
4.15851e-05,5.12446
4.35646e-05,5.26837
4.55366e-05,5.5168
4.76137e-05,5.96028
4.95978e-05,6.10223
5.157e-05,6.38881
5.36238e-05,6.6016
5.56104e-05,6.98558
5.7539e-05,7.10283
5.96015e-05,7.44306
6.16322e-05,7.74033
6.35875e-05,8.05555
6.56099e-05,8.4002
6.75655e-05,8.70944
6.95866e-05,8.99635
7.1599e-05,9.2439
7.36094e-05,9.41991
7.55611e-05,9.85719
7.76111e-05,10.0578
7.96116e-05,10.3774
8.15536e-05,10.7707
8.35932e-05,11.1597
8.55681e-05,11.4391
8.75332e-05,11.6832
8.96063e-05,12.0969
9.16107e-05,12.5432
9.35846e-05,12.9734
9.55819e-05,13.1804
9.76047e-05,13.6246
9.95899e-05,13.9453
0.000101574,14.307
0.000103601,14.6277
0.000105579,15.0686
0.000107585,15.5116
0.000109614,15.8106
0.000111605,16.2747
0.000113593,16.6266
0.000115587,16.9836
0.000117554,17.5213
0.00011951,17.8764
0.0001216,18.2415
0.000123599,18.6789
0.000125519,18.9661
0.0001276,19.3525
0.000129586,19.7519
0.000131562,20.077
0.00013359,20.5343
0.000135588,20.9227
0.000137555,21.2435
0.000139592,21.677
0.000141597,22.0996
0.000143566,22.4848
0.000145592,22.9037
0.000147601,23.3005
0.000149582,23.6821
0.000151585,24.0348
0.000153595,24.4916
0.000155557,24.8164
0.000157583,25.1978
0.000159582,25.5801
0.000161501,25.9673
0.000163577,26.3115
0.000165576,26.8559
0.000167565,27.2041
0.000169587,27.5489
0.000171592,27.864
0.000173602,28.3086
0.000175597,28.5962
0.000177601,28.934
0.000179582,29.2478
0.000181582,29.5598
0.000183588,29.9598
0.00018557,30.2686
0.00018758,30.5535
0.000189588,30.8954
0.000191596,31.4172
0.000193578,31.6634
0.000195595,32.02
0.000197585,32.2932
0.000199556,32.5754
0.000201583,32.985
0.000203573,33.3484
0.000205562,33.5372
0.00020757,33.9572
0.000209564,34.1912
0.000211571,34.583
0.000213567,34.9013
0.000215577,35.0666
0.00021754,35.2978
0.00021957,35.7257
0.000221587,35.9171
0.000223581,36.1634
0.000225577,36.5009
0.000227556,36.6378
0.000229576,36.9682
0.000231565,37.2451
0.000233572,37.493
0.000235548,37.7919
0.000237557,38.0462
0.000239584,38.4273
0.00024155,38.732
0.000243573,38.9227
0.00024558,39.2259
0.000247584,39.4015
0.000249574,39.8868
0.000251579,40.2148
0.000253553,40.4654
0.000255553,40.875
0.000257559,41.1126
0.000259536,41.3914
0.000261545,41.8765
0.00026356,42.2075
0.000265568,42.483
0.000267566,42.9265
0.000269567,43.4248
0.000271575,43.7323
0.000273568,44.0289
0.000275568,44.2305
0.000277571,44.6855
0.00027956,44.9413
0.000281557,45.336
0.000283551,45.5444
0.000285526,45.9992
0.000287583,46.381
0.000289564,46.6104
0.000291543,46.9655
0.000293564,47.2969
0.000295567,47.6152
0.00029756,48.0136
0.000299552,48.3293
0.000301557,48.5236
0.000303498,48.7871
0.000305554,49.1634
0.00030754,49.7931
0.000309535,50.1289
0.000311567,50.3619
0.000313549,50.8664
0.000315563,51.2089
0.000317561,51.6571
0.000319562,51.9152
0.000321567,52.4278
0.000323567,52.8116
0.000325573,53.148
0.000327513,53.4196
0.000329531,53.927
0.000331524,54.2355
0.000333548,54.6128
0.000335565,54.9531
0.000337562,55.3131
0.000339561,55.7836
0.000341553,56.0987
0.00034356,56.4175
0.000345556,56.6914
0.000347536,57.0206
0.000349538,57.225
0.000351545,57.8554
0.000353518,58.1594
0.000355527,58.4771
0.000357542,58.9744
0.0003595,59.1131
0.000361549,59.6933
0.000363542,60.1044
0.000365555,60.4347
0.000367539,60.8823
0.000369544,61.2708
0.000371529,61.7138
0.000373534,62.0784
0.000375525,62.5014
0.000377549,62.9335
0.000379544,63.4476
0.000381541,63.8482
0.00038354,64.2095
0.000385536,64.5886
0.00038754,64.9904
0.000389541,65.5036
0.000391534,65.9655
0.000393544,66.2244
0.000395516,66.7507
0.000397513,67.1346
0.000399533,67.6233
0.000401512,67.9683
0.000403527,68.451
0.000405525,68.9506
0.000407539,69.4643
0.000409539,69.8902
0.000411543,70.2713
0.000413532,70.7529
0.000415535,71.2014
0.000417529,71.627
0.000419525,71.9931
0.0004215,72.4955
0.000423536,72.9348
0.000425528,73.3585
0.00042753,73.768
0.000429524,74.2377
0.000431544,74.6201
0.000433522,75.0711
0.000435523,75.6816
0.000437532,75.9926
0.000439523,76.4315
0.000441527,76.7389
0.000443515,77.1947
0.000445544,77.7628
0.000447525,78.2061
0.000449517,78.6685
0.00045151,79.1246
0.000453499,79.5132
0.000455527,79.9535
0.000457512,80.5893
0.000459532,80.9064
0.000461526,81.362
0.000463518,81.7485
0.00046555,82.2292
0.000467526,82.6946
0.000469521,83.0919
0.000471506,83.5814
0.000473507,84.0421
0.000475504,84.3728
0.000477503,84.933
0.000479513,85.4056
0.000481533,85.9297
0.000483502,86.3016
0.000485508,86.6702
0.000487543,87.117
0.000489516,87.636
0.000491503,87.9545
0.000493507,88.5297
0.000495516,89.0123
0.000497495,89.467
0.000499481,89.9194
0.000501504,90.391
0.0005035,90.7246
0.000505532,91.2036
0.000507546,91.5738
0.000509522,92.0643
0.000511496,92.5337
0.000513505,92.8942
0.000515497,93.3946
0.000517502,93.8853
0.000519489,94.2569
0.000521493,94.7429
0.000523489,95.1634
0.000525504,95.6246
0.000527517,96.0936
0.000529504,96.5605
0.000531511,96.9706
0.000533531,97.3807
0.000535512,97.6942
0.000537497,98.3808
0.000539495,98.7589
0.000541479,99.2731
0.000543478,99.675
0.000545511,100.019
0.000547517,100.604
0.000549448,101.021
0.000551504,101.577
0.000553532,101.939
0.000555513,102.471
0.00055749,102.723
0.000559492,103.419
0.000561487,103.782
0.000563491,104.075
0.000565493,104.603
0.000567453,105.062
0.000569467,105.457
0.000571486,105.986
0.000573486,106.371
0.00057548,106.766
0.000577513,107.349
0.000579504,107.721
0.000581535,108.135
0.000583497,108.751
0.000585508,109.137
0.000587496,109.59
0.000589494,110
0.000591477,110.373
0.000593477,110.925
0.000595502,111.501
0.000597492,111.948
0.000599467,112.334
0.00060149,112.705
0.000603517,113.118
0.000605477,113.617
0.000607492,114.078
0.000609496,114.434
0.000611436,114.939
0.000613516,115.391
0.000615505,115.914
0.000617443,116.347
0.000619472,116.721
0.000621479,117.087
0.000623489,117.482
0.00062549,117.984
0.000627486,118.325
0.000629476,118.821
0.000631483,119.201
0.000633496,119.751
0.000635476,120.159
0.000637493,120.631
0.000639484,121.002
0.000641481,121.414
0.000643451,121.883
0.000645509,122.207
0.000647447,122.728
0.000649492,123.204
0.000651491,123.47
0.00065349,123.933
0.000655505,124.373
0.000657476,124.725
0.000659501,125.277
0.000661466,125.689
0.000663461,126.042
0.000665467,126.45
0.000667431,126.909
0.000669471,127.356
0.000671472,127.789
0.000673456,128.185
0.000675494,128.491
0.000677473,129.001
0.000679453,129.434
0.000681476,129.74
0.000683466,130.206
0.000685441,130.55
0.000687465,130.855
0.000689461,131.285
0.000691441,131.707
0.000693443,132.083
0.000695454,132.532
0.000697456,133.023
0.000699433,133.352
0.000701424,133.703
0.000703429,134.153
0.000705414,134.466
0.000707428,134.852
0.000709424,135.205
0.000711404,135.579
0.00071342,136.129
0.000715447,136.557
0.000717418,136.84
0.000719411,137.194
0.000721379,137.607
0.000723396,137.894
0.000725418,138.228
0.000727394,138.753
0.000729402,139.045
0.00073139,139.337
0.000733383,139.699
0.000735401,140.052
0.000737395,140.399
0.000739386,140.704
0.000741398,141.119
0.000743402,141.474
0.000745404,141.876
0.000747407,142.158
0.000749409,142.511
0.000751388,142.863
0.000753391,143.255
0.000755393,143.575
0.000757397,143.902
0.000759409,144.305
0.000761385,144.786
0.00076341,144.968
0.000765385,145.273
0.000767411,145.653
0.000769406,145.958
0.000771419,146.367
0.000773388,146.713
0.000775413,147.09
0.00077738,147.492
0.000779396,147.652
0.000781386,148.041
0.000783379,148.374
0.000785386,148.607
0.000787395,149.024
0.000789399,149.27
0.000791406,149.533
0.000793425,149.986
0.000795392,150.319
0.00079741,150.576
0.00079939,150.892
0.000801373,151.21
0.000803392,151.466
0.000805387,151.714
0.000807369,152.05
0.000809384,152.347
0.000811383,152.675
0.000813383,152.977
0.00081537,153.189
0.000817411,153.592
0.000819402,153.818
0.000821384,154.163
0.000823377,154.452
0.000825368,154.652
0.000827376,154.982
0.000829369,155.259
0.000831375,155.603
0.000833351,155.81
0.00083537,156.137
0.000837366,156.238
0.000839386,156.498
0.000841405,156.833
0.000843406,157.154
0.000845383,157.353
0.000847376,157.631
0.000849371,157.796
0.000851379,158.137
0.000853354,158.33
0.000855365,158.644
0.000857374,158.806
0.00085936,159.095
0.000861373,159.221
0.000863382,159.532
0.000865384,159.728
0.000867386,159.997
0.000869376,160.209
0.000871368,160.477
0.000873377,160.62
0.000875363,160.832
0.000877342,161.046
0.000879367,161.297
0.000881355,161.528
0.000883354,161.716
0.000885382,161.875
0.000887343,162.114
0.000889371,162.348
0.000891364,162.477
0.00089339,162.708
0.000895358,162.902
0.000897391,163.087
0.000899345,163.271
0.000901348,163.419
0.000903362,163.635
0.000905384,163.942
0.000907373,164.008
0.000909349,164.221
0.00091136,164.333
0.00091336,164.527
0.000915375,164.743
0.000917406,164.851
0.000919345,165.019
0.000921333,165.162
0.000923352,165.376
0.000925339,165.524
0.000927358,165.63
0.000929381,165.661
0.000931352,165.907
0.000933391,166.046
0.000935412,166.258
0.000937363,166.401
0.000939359,166.502
0.000941374,166.527
0.000943341,166.753
0.00094535,166.864
0.000947425,167.1
0.000949399,167.135
0.000951332,167.251
0.000953397,167.406
0.000955402,167.437
0.00095736,167.746
0.000959353,167.784
0.000961349,167.932
0.000963369,167.979
0.000965441,168.174
0.000967414,168.125
0.00096933,168.343
0.000971405,168.452
0.00097339,168.524
0.000975357,168.488
0.000977414,168.583
0.000979417,168.745
0.000981379,168.867
0.000983405,168.868
0.000985436,169.158
0.000987403,169.223
0.000989403,169.1
0.000991442,169.438
0.000993387,169.275
0.000995428,169.304
0.000997414,169.532
0.000999368,169.567
0.00100142,169.679
0.00100344,169.715
0.00100538,169.793
0.00100743,169.748
0.00100943,169.967
0.00101139,169.906
0.00101339,169.963
0.00101542,169.996
0.0010174,169.98
0.00101938,170.104
0.0010214,170.195
0.00102337,170.149
0.00102534,170.204
0.00102741,170.257
0.00102942,170.226
0.00103143,170.375
0.00103342,170.332
0.00103539,170.29
0.00103742,170.314
0.00103939,170.345
0.00104139,170.412
0.00104337,170.427
0.0010454,170.525
0.00104739,170.409
0.00104939,170.543
0.0010514,170.531
0.00105342,170.525
0.00105539,170.54
0.00105741,170.597
0.00105943,170.588
0.00106137,170.601
0.00106338,170.585
0.0010654,170.599
0.00106738,170.533
0.00106938,170.555
0.0010714,170.574
0.00107338,170.549
0.0010754,170.543
0.00107742,170.627
0.00107941,170.539
0.0010814,170.494
0.0010834,170.459
0.00108541,170.485
0.00108738,170.393
0.00108937,170.398
0.00109137,170.408
0.0010934,170.327
0.00109539,170.394
0.0010974,170.317
0.00109939,170.184
0.0011014,170.208
0.0011034,170.259
0.00110539,170.217
0.00110739,170.196
0.00110938,170.088
0.00111137,170.083
0.00111338,170.028
0.00111539,169.935
0.00111734,169.778
0.00111938,169.911
0.00112137,169.83
0.00112338,169.803
0.00112539,169.789
0.00112738,169.675
0.00112937,169.633
0.00113136,169.601
0.00113339,169.547
0.00113539,169.47
0.00113738,169.394
0.0011394,169.378
0.00114137,169.2
0.00114337,169.17
0.00114537,169.166
0.00114737,169.075
0.00114939,168.995
0.00115138,169.08
0.00115339,168.82
0.00115535,168.827
0.00115736,168.667
0.00115934,168.617
0.00116137,168.578
0.00116334,168.477
0.00116536,168.489
0.00116735,168.394
0.00116938,168.337
0.00117136,168.256
0.00117338,168.1
0.00117538,168.142
0.00117738,168
0.00117936,167.926
0.00118138,167.821
0.00118336,167.733
0.00118538,167.735
0.00118739,167.516
0.00118938,167.598
0.00119139,167.444
0.00119337,167.227
0.00119539,167.231
0.00119735,167.105
0.00119938,167.195
0.00120137,167.056
0.00120339,167.079
0.00120535,166.943
0.00120737,166.767
0.00120934,166.678
0.00121136,166.704
0.00121338,166.532
0.00121535,166.517
0.00121735,166.319
0.00121937,166.32
0.00122138,166.116
0.00122334,166.118
0.00122537,165.965
0.0012274,165.968
0.00122936,165.609
0.00123137,165.681
0.00123333,165.552
0.00123534,165.457
0.00123738,165.448
0.00123937,165.244
0.00124136,165.123
0.00124337,164.982
0.00124536,164.987
0.00124737,165.097
0.00124936,164.889
0.00125137,164.663
0.00125335,164.658
0.00125534,164.57
0.00125734,164.517
0.00125934,164.349
0.00126135,164.29
0.00126336,164.284
0.00126537,164.176
0.00126737,164.068
0.00126937,163.922
0.00127134,163.762
0.00127335,163.712
0.00127534,163.586
0.00127734,163.533
0.00127935,163.362
0.00128134,163.384
0.00128335,163.258
0.00128534,163.183
0.00128736,163.043
0.00128934,163.062
0.00129135,162.885
0.00129337,162.783
0.00129535,162.758
0.00129736,162.616
0.00129935,162.536
0.00130133,162.395
0.00130337,162.403
0.00130534,162.324
0.00130732,162.182
0.00130933,162.098
0.00131135,162.133
0.00131334,161.955
0.00131534,161.835
0.00131734,161.745
0.00131935,161.641
0.00132136,161.705
0.00132335,161.552
0.00132535,161.457
0.00132735,161.34
0.00132933,161.272
0.00133133,161.314
0.00133333,161.175
0.00133532,161.011
0.00133736,161.044
0.00133935,160.871
0.00134136,160.904
0.00134335,160.779
0.00134534,160.735
0.00134732,160.596
0.00134934,160.534
0.00135133,160.415
0.00135334,160.286
0.00135533,160.258
0.00135732,160.217
0.00135933,160.14
0.00136133,159.972
0.00136337,160.028
0.00136536,159.988
0.00136735,159.795
0.00136932,159.731
0.00137133,159.621
0.00137333,159.612
0.00137532,159.564
0.00137735,159.426
0.00137932,159.442
0.00138134,159.325
0.00138332,159.176
0.00138533,159.21
0.00138738,159.173
0.00138933,158.973
0.00139133,158.939
0.00139331,158.902
0.00139532,158.831
0.00139734,158.813
0.00139932,158.801
0.00140131,158.707
0.0014033,158.659
0.00140529,158.534
0.00140732,158.374
0.00140932,158.471
0.00141134,158.345
0.00141332,158.301
0.00141533,158.34
0.00141734,158.113
0.00141933,158.106
0.00142131,158.019
0.00142331,158.078
0.00142532,158.051
0.00142731,157.788
0.00142931,157.893
0.00143131,157.715
0.00143332,157.747
0.00143533,157.62
0.00143732,157.581
0.00143935,157.603
0.00144131,157.488
0.00144332,157.491
0.00144529,157.371
0.00144733,157.35
0.0014493,157.359
0.0014513,157.21
0.00145331,157.194
0.00145528,157.214
0.0014573,157.117
0.00145933,157.056
0.00146132,156.928
0.00146331,157.043
0.00146531,157
0.00146729,156.833
0.00146931,156.808
0.0014713,156.774
0.0014733,156.829
0.00147528,156.725
0.00147731,156.568
0.0014793,156.624
0.00148133,156.509
0.00148331,156.519
0.00148529,156.439
0.00148726,156.467
0.0014893,156.292
0.00149131,156.295
0.00149329,156.379
0.0014953,156.187
0.00149729,156.24
0.00149929,156.056
0.00150129,156.016
0.00150331,156.12
0.00150529,155.978
0.0015073,155.831
0.00150932,155.853
0.00151132,155.846
0.0015133,155.812
0.00151529,155.736
0.00151728,155.727
0.00151928,155.676
0.00152131,155.576
0.00152333,155.526
0.00152529,155.515
0.00152728,155.437
0.00152926,155.448
0.0015313,155.426
0.00153331,155.382
0.00153532,155.28
0.00153728,155.315
0.00153932,155.212
0.0015413,155.18
0.00154327,155.126
0.00154528,155.127
0.00154728,155.032
0.0015493,155.052
0.00155129,155.038
0.0015533,154.951
0.00155528,154.867
0.0015573,154.96
0.00155931,154.745
0.00156129,154.74
0.00156328,154.715
0.00156526,154.626
0.00156728,154.651
0.00156928,154.659
0.00157128,154.695
0.00157327,154.526
0.0015753,154.507
0.00157729,154.438
0.00157928,154.448
0.00158129,154.411
0.00158329,154.322
0.00158527,154.203
0.0015873,154.294
0.00158927,154.272
0.00159124,154.19
0.00159326,154.099
0.00159528,154.12
0.00159725,154.078
0.00159924,154.074
0.00160127,153.994
0.00160324,153.92
0.00160524,153.874
0.00160728,153.976
0.00160923,153.807
0.00161121,153.79
0.00161322,153.792
0.00161522,153.831
0.00161722,153.761
0.00161922,153.667
0.00162124,153.571
0.00162322,153.606
0.00162528,153.544
0.00162728,153.605
0.00162922,153.641
0.00163121,153.481
0.00163322,153.482
0.00163521,153.482
0.00163723,153.414
0.00163925,153.302
0.00164119,153.299
0.00164321,153.422
0.00164521,153.264
0.0016472,153.271
0.00164923,153.407
0.00165123,153.332
0.00165321,153.336
0.00165523,153.171
0.00165721,153.189
0.0016592,153.142
0.0016612,153.142
0.00166321,153.113
0.00166519,153.277
0.00166721,153.117
0.00166923,152.989
0.0016712,153.008
0.00167322,152.996
0.00167525,152.968
0.0016772,152.978
0.00167926,152.931
0.00168124,152.901
0.00168321,152.837
0.0016852,152.864
0.00168718,152.923
0.0016892,152.939
0.00169122,152.839
0.00169321,152.906
0.00169519,152.731
0.0016972,152.692
0.00169921,152.785
0.00170118,152.691
0.00170321,152.796
0.00170518,152.702
0.00170719,152.74
0.00170919,152.693
0.00171116,152.718
0.0017132,152.62
0.00171518,152.598
0.00171721,152.695
0.00171922,152.652
0.00172118,152.551
0.00172319,152.565
0.00172518,152.686
0.00172719,152.589
0.00172918,152.595
0.00173118,152.63
0.00173317,152.621
0.0017352,152.587
0.00173715,152.603
0.00173916,152.61
0.00174116,152.466
0.00174317,152.622
0.00174517,152.546
0.00174717,152.568
0.00174919,152.474
0.00175118,152.547
0.00175319,152.519
0.00175517,152.462
0.00175715,152.525
0.00175916,152.486
0.00176114,152.441
0.00176317,152.49
0.00176518,152.487
0.0017672,152.51
0.00176919,152.483
0.00177119,152.427
0.0017732,152.452
0.00177518,152.38
0.00177717,152.402
0.00177918,152.394
0.00178116,152.439
0.00178318,152.446
0.00178515,152.419
0.00178716,152.454
0.00178916,152.404
0.00179118,152.431
0.00179319,152.442
0.00179519,152.343
0.00179717,152.406
0.00179918,152.414
0.00180116,152.446
0.00180318,152.412
0.00180514,152.336
0.00180716,152.303
0.00180916,152.365
0.00181119,152.399
0.00181317,152.353
0.00181519,152.458
0.00181716,152.43
0.00181918,152.313
0.00182118,152.359
0.00182319,152.405
0.00182517,152.316
0.00182714,152.346
0.00182915,152.429
0.00183115,152.359
0.00183315,152.355
0.00183517,152.475
0.00183716,152.325
0.00183917,152.465
0.00184117,152.385
0.00184316,152.415
0.00184517,152.307
0.00184714,152.344
0.00184917,152.366
0.00185116,152.342
0.00185317,152.375
0.00185516,152.321
0.0018572,152.363
0.00185922,152.439
0.0018612,152.319
0.00186319,152.469
0.00186519,152.366
0.00186721,152.379
0.00186915,152.283
0.0018712,152.172
0.0018732,152.378
0.00187514,152.269
0.00187719,152.31
0.00187916,152.287
0.00188114,152.22
0.00188322,152.28
0.00188521,152.169
0.00188716,152.273
0.0018892,152.329
0.0018912,152.276
0.00189315,152.28
0.00189522,152.319
0.00189722,152.334
0.00189917,152.319
0.00190122,152.276
0.00190321,152.362
0.00190519,152.279
0.0019072,152.256
0.00190921,152.242
0.00191119,152.213
0.00191321,152.212
0.00191521,152.166
0.00191719,152.2
0.00191919,152.243
0.00192124,152.149
0.00192319,152.199
0.00192519,152.199
0.00192721,152.145
0.00192919,152.145
0.00193115,152.19
0.00193323,152.2
0.00193521,152.071
0.00193723,152.229
0.00193922,152.112
0.00194121,152.166
0.0019432,152.179
0.00194523,152.128
0.00194721,152.133
0.00194917,152.119
0.00195119,152.193
0.0019532,152.233
0.00195518,152.098
0.00195724,152.106
0.00195921,152.05
0.0019612,152.186
0.00196321,152.125
0.00196521,152.063
0.00196716,152.143
0.00196917,152.191
0.00197119,152.171
0.00197317,152.212
0.00197519,152.168
0.00197719,152.267
0.00197919,152.188
0.0019812,152.264
0.00198322,152.276
0.00198521,152.276
0.00198721,152.343
0.0019892,152.271
0.00199118,152.435
0.00199319,152.391
0.00199521,152.338
0.00199715,152.379
0.00199918,152.418
0.00200119,152.386
0.00200319,152.301
0.00200521,152.372
0.00200721,152.313
0.00200919,152.444
0.00201118,152.378
0.00201319,152.339
0.00201518,152.437
0.00201718,152.449
0.00201921,152.469
0.00202119,152.476
0.00202319,152.554
0.00202517,152.465
0.00202719,152.464
0.00202919,152.432
0.00203122,152.595
0.0020332,152.542
0.00203517,152.556
0.00203719,152.571
0.00203919,152.453
0.00204116,152.576
0.00204318,152.541
0.00204518,152.647
0.00204719,152.677
0.00204919,152.628
0.00205118,152.762
0.00205318,152.729
0.00205518,152.751
0.00205719,152.723
0.00205919,152.77
0.0020612,152.82
0.00206323,152.807
0.00206517,152.816
0.00206718,152.817
0.00206919,152.814
0.00207115,152.801
0.00207318,152.777
0.00207518,152.896
0.00207717,152.882
0.00207919,152.912
0.00208117,152.984
0.00208318,152.956
0.00208519,152.862
0.0020872,152.946
0.00208917,152.854
0.00209114,153.069
0.00209318,153.071
0.00209517,153.098
0.00209717,153.122
0.00209919,153.218
0.00210118,153.295
0.00210319,153.149
0.00210519,153.244
0.00210721,153.225
0.00210919,153.396
0.00211117,153.235
0.00211317,153.212
0.00211515,153.415
0.00211717,153.427
0.00211918,153.336
0.00212115,153.412
0.00212316,153.442
0.00212518,153.411
0.00212719,153.445
0.00212919,153.549
0.00213121,153.553
0.00213319,153.491
0.00213515,153.582
0.00213717,153.565
0.00213916,153.567
0.00214114,153.631
0.00214319,153.715
0.00214518,153.661
0.00214716,153.721
0.00214918,153.744
0.00215119,153.89
0.00215318,153.847
0.00215517,153.861
0.00215714,153.944
0.00215917,153.921
0.00216117,153.969
0.00216315,153.947
0.00216515,153.937
0.00216714,153.948
0.00216917,154.101
0.00217118,154.083
0.00217317,154.138
0.00217518,154.111
0.00217717,154.11
0.00217916,154.164
0.00218118,154.232
0.00218316,154.188
0.00218515,154.176
0.00218717,154.145
0.00218916,154.235
0.00219117,154.358
0.00219316,154.265
0.00219518,154.318
0.00219717,154.281
0.00219918,154.304
0.00220117,154.253
0.00220315,154.468
0.00220516,154.415
0.00220715,154.394
0.00220914,154.434
0.00221116,154.399
0.00221315,154.479
0.00221515,154.543
0.00221714,154.503
0.00221916,154.479
0.00222114,154.601
0.00222317,154.528
0.00222516,154.682
0.00222714,154.652
0.00222915,154.598
0.00223118,154.646
0.00223314,154.646
0.00223515,154.698
0.00223714,154.675
0.00223914,154.78
0.00224115,154.671
0.00224316,154.768
0.00224515,154.843
0.00224715,154.821
0.00224915,154.79
0.00225113,154.832
0.00225314,154.77
0.00225515,154.972
0.00225714,154.987
0.00225914,154.917
0.00226114,154.973
0.00226312,155.055
0.00226512,154.969
0.00226719,155.127
0.00226914,155.062
0.00227117,155.046
0.00227314,155.222
0.00227517,155.239
0.00227715,155.15
0.00227914,155.241
0.00228115,155.137
0.00228311,155.093
0.00228514,155.115
0.00228715,155.145
0.00228913,155.282
0.00229113,155.289
0.00229315,155.194
0.00229513,155.386
0.00229713,155.304
0.00229913,155.296
0.00230114,155.441
0.00230311,155.389
0.00230511,155.351
0.00230711,155.434
0.00230913,155.342
0.00231114,155.485
0.00231311,155.544
0.00231514,155.377
0.00231715,155.512
0.00231914,155.581
0.00232072,-1.75584
0.00232312,-1.82784
0.00232516,-1.90938
0.00232711,-1.87449
0.00232915,-1.96041
0.00233113,-1.88968
0.00233312,-1.90666
0.00233511,-2.01107
0.00233716,-1.91142
0.00233915,-1.87374
0.00234116,-1.83867
0.00234316,-1.91304
0.00234515,-1.96189
0.00234717,-1.86034
0.00234914,-1.87764
0.00235112,-1.94785