File: data/ReportRaw/Resin_TXT/Unknown_Resin/Tensile_Test_02.txt
Program Started: Tue, Jul 16, 2024	1:13:32 PM	System: µTS4
Test Notes:

User displacement limits active. Low limit -20.000E-3 m, high limit 20.000E-3 m.
User load limits active. Low limit -1.600E+3 N, high limit 1.600E+3 N.

No closed loop control sensors in this test.

Test Segments:
 1. Ramp in Drive Control, +5.00E-3m Amplitude, 10.00E-6 m/s Speed. Sampling at 20.000 Hz, Lowpass Filter Cutoff of 100.000 Hz

Specimen Thickness (m): 	1.550E-3
Specimen Width (m): 	1.910E-3
Specimen Diameter (m): 	0.000E+0
Specimen Area (m^2): 	2.960E-6
Specimen Length (m): 	5.000E-3

Test Started: Tue, Jul 16, 2024	2:16:47 PM
Time (s)	LCFS1600 (N)	LCW1600 (N)	ECATENC (m)	SpecTemp (C)	AirTemp (C)	OutletTemp (C)	JTemp1600 (C)	GTemp1600 (C)	CUR (A)	Ve (V)	Trigger (#)
0.0000000000E+0	-0.223924	-0.205836	-8.46349e-10	25.1763	25.2851	25.0675	32.8707	0.510711	0.0667131	10.1463	-1
0.6	0.0349032	0.0685451	4.46196e-06	25.1539	25.2767	25.0311	32.8714	0.509498	0.154462	10.1465	-1
1.2	0.24924	0.286131	1.04156e-05	25.1654	25.2852	25.0457	32.8709	0.510128	0.0916628	10.1464	-1
1.8	0.504255	0.527801	1.64105e-05	25.1754	25.2775	25.0734	32.8715	0.509811	0.0906993	10.1466	-1
2.4	0.656084	0.750704	2.23958e-05	25.1778	25.2969	25.0586	32.8717	0.510119	0.125409	10.1463	-1
3	0.949195	0.947403	2.8402e-05	25.1674	25.2886	25.0461	32.8711	0.509559	0.16147	10.1467	-1
3.6	1.08227	1.18484	3.44504e-05	25.1843	25.298	25.0706	32.8724	0.510216	0.141092	10.1467	-1
4.2	1.40497	1.40841	4.04239e-05	25.1673	25.2797	25.0549	32.8707	0.510586	0.13044	10.1463	-1
4.8	1.65044	1.64221	4.6406e-05	25.1774	25.2908	25.0639	32.8707	0.51109	0.212593	10.1466	-1
5.4	1.80152	1.90219	5.24438e-05	25.1719	25.2873	25.0564	32.8705	0.509613	0.25818	10.1465	-1
6	2.13196	2.17089	5.84241e-05	25.1635	25.267	25.06	32.8712	0.510402	0.177504	10.1463	-1
6.6	2.39306	2.43481	6.43946e-05	25.1903	25.3113	25.0693	32.8725	0.50973	0.149946	10.1468	-1
7.2	2.71941	2.73875	7.04335e-05	25.1838	25.3037	25.0639	32.8723	0.510066	0.198903	10.1465	-1
7.8	3.02028	3.0171	7.64103e-05	25.17	25.2886	25.0514	32.8723	0.509823	0.217212	10.1466	-1
8.4	3.32471	3.33812	8.23903e-05	25.1636	25.2697	25.0575	32.8711	0.511066	0.140791	10.1469	-1
9	3.6168	3.67093	8.84101e-05	25.1639	25.2881	25.0397	32.871	0.509456	0.156294	10.1468	-1
9.6	4.00856	3.99828	9.44052e-05	25.1894	25.3021	25.0767	32.8726	0.510822	0.185781	10.1467	-1
10.2	4.26799	4.36794	0.000100413	25.1747	25.2883	25.0611	32.8717	0.509548	0.193208	10.1464	-1
10.8	4.73298	4.73691	0.000106386	25.1719	25.2829	25.061	32.8715	0.509984	0.204527	10.1466	-1
11.4	5.12655	5.09118	0.000112404	25.1841	25.301	25.0672	32.8716	0.509353	0.210446	10.1469	-1
12	5.49362	5.48643	0.000118378	25.1763	25.2898	25.0628	32.8699	0.50981	0.279924	10.1465	-1
12.6	5.80521	5.8278	0.000124395	25.1586	25.2772	25.04	32.8711	0.509393	0.276113	10.1468	-1
13.2	6.23372	6.228	0.000130423	25.1841	25.2989	25.0694	32.8714	0.510517	0.229123	10.1462	-1
13.8	6.65659	6.66075	0.000136384	25.1718	25.2755	25.0682	32.8715	0.509764	0.194848	10.1471	-1
14.4	6.99249	7.05612	0.000142369	25.1763	25.2792	25.0735	32.8718	0.509534	0.248136	10.1466	-1
15	7.52578	7.48769	0.000148391	25.1678	25.2948	25.0408	32.8702	0.509709	0.211702	10.1471	-1
15.6	7.94965	7.95896	0.000154397	25.1744	25.298	25.0509	32.8721	0.509135	0.203639	10.147	-1
16.2	8.44793	8.40451	0.000160406	25.1743	25.2888	25.0598	32.872	0.508874	0.16002	10.1465	-1
16.8	8.98109	8.88906	0.000166389	25.1869	25.304	25.0698	32.8703	0.51021	0.25971	10.1466	-1
17.4	9.38174	9.39803	0.000172384	25.1726	25.2829	25.0622	32.8716	0.50938	0.258161	10.147	-1
18	9.87864	9.90342	0.000178418	25.1845	25.2972	25.0718	32.8714	0.509756	0.22624	10.1466	-1
18.6	10.455	10.464	0.000184363	25.1804	25.2805	25.0803	32.8713	0.509798	0.190765	10.1468	-1
19.2	11.0428	11.0019	0.000190376	25.1563	25.2628	25.0498	32.8716	0.510455	0.24012	10.1467	-1
19.8	11.4197	11.5379	0.00019641	25.1822	25.2965	25.068	32.872	0.510623	0.256278	10.1471	-1
20.4	12.1193	12.1645	0.000202387	25.1744	25.2902	25.0586	32.8718	0.509691	0.195958	10.1471	-1
21	12.668	12.7476	0.000208395	25.1745	25.2803	25.0687	32.8716	0.509783	0.209955	10.147	-1
21.6	13.3223	13.4012	0.000214365	25.1649	25.2806	25.0492	32.8712	0.509929	0.301791	10.1469	-1
22.2	14.0595	14.0247	0.000220409	25.1946	25.3066	25.0826	32.8724	0.51019	0.323496	10.1466	-1
22.8	14.6092	14.6626	0.000226371	25.1784	25.2977	25.0592	32.8728	0.509646	0.256463	10.147	-1
23.4	15.2854	15.2866	0.000232387	25.1612	25.2772	25.0452	32.8736	0.50939	0.22	10.1471	-1
24	16.009	16.0114	0.000238358	25.1694	25.2862	25.0526	32.872	0.510392	0.277109	10.1469	-1
24.6	16.5797	16.6342	0.000244365	25.1501	25.2722	25.028	32.8724	0.508785	0.220692	10.1467	-1
25.2	17.2425	17.3326	0.000250391	25.1696	25.2952	25.0439	32.8715	0.509609	0.163209	10.1471	-1
25.8	17.8984	17.9752	0.000256366	25.1774	25.2961	25.0587	32.8711	0.510826	0.189968	10.1474	-1
26.4	18.6669	18.5995	0.000262347	25.1778	25.2904	25.0652	32.8718	0.509885	0.283039	10.1468	-1
27	19.122	19.2454	0.00026839	25.1735	25.2913	25.0557	32.8698	0.510297	0.293509	10.1469	-1
27.6	19.8691	19.8883	0.000274384	25.1774	25.2911	25.0637	32.873	0.510933	0.254549	10.147	-1
28.2	20.4131	20.5305	0.00028036	25.1813	25.2849	25.0776	32.8724	0.510454	0.254634	10.1475	-1
28.8	21.0217	21.2173	0.000286371	25.1753	25.2763	25.0742	32.8727	0.508894	0.326582	10.1479	-1
29.4	21.9236	21.8989	0.000292356	25.1632	25.2775	25.0488	32.873	0.510325	0.298888	10.1472	-1
30	22.6689	22.7275	0.000298371	25.1514	25.2631	25.0396	32.8723	0.509292	0.244531	10.1475	-1
30.6	23.3105	23.3398	0.000304361	25.1646	25.2761	25.053	32.8739	0.510219	0.223628	10.1476	-1
31.2	23.8498	23.9994	0.000310345	25.172	25.2737	25.0703	32.8722	0.509644	0.306308	10.1475	-1
31.8	24.6932	24.734	0.000316377	25.18	25.287	25.073	32.8726	0.50952	0.296698	10.1475	-1
32.4	25.4333	25.4919	0.000322358	25.1621	25.2783	25.0459	32.8719	0.509552	0.254762	10.1476	-1
33	26.1196	26.0905	0.000328345	25.1709	25.2802	25.0615	32.8719	0.50994	0.2259	10.1478	-1
33.6	26.7538	26.7623	0.000334363	25.1708	25.2762	25.0654	32.8714	0.509951	0.269744	10.1477	-1
34.2	27.5079	27.537	0.000340373	25.1651	25.2622	25.0681	32.872	0.509728	0.220584	10.1478	-1
34.8	28.1539	28.2455	0.000346369	25.1556	25.2727	25.0386	32.871	0.510117	0.181119	10.1475	-1
35.4	28.8672	28.9632	0.00035236	25.1627	25.26	25.0655	32.873	0.509407	0.194866	10.1477	-1
36	29.7764	29.722	0.000358354	25.1677	25.2725	25.0629	32.8701	0.509819	0.281578	10.1482	-1
36.6	30.4682	30.4994	0.000364364	25.1575	25.2652	25.0499	32.8712	0.508972	0.299634	10.1479	-1
37.2	31.2895	Inf	0.000370366	25.1751	25.2847	25.0654	32.8723	0.51074	0.231296	10.1478	-1
37.8	31.9543	Inf	0.000376329	25.1721	25.2825	25.0617	32.8715	0.510231	0.255432	10.1472	-1
38.4	32.8397	Inf	0.000382351	25.1629	25.2717	25.054	32.873	0.510644	0.28407	10.1477	-1
39	33.5338	Inf	0.000388324	25.1649	25.2699	25.0599	32.8716	0.509773	0.24345	10.1478	-1
39.6	34.3272	Inf	0.000394327	25.1706	25.2813	25.0599	32.8711	0.510554	0.175859	10.1478	-1
40.2	35.0723	Inf	0.00040032	25.1673	25.2707	25.0638	32.8721	0.509188	0.194184	10.148	-1
40.8	35.6793	Inf	0.000406297	25.1542	25.2687	25.0397	32.8726	0.509078	0.238818	10.1484	-1
41.4	36.2258	Inf	0.000412305	25.1604	25.2766	25.0442	32.872	0.509525	0.214485	10.1482	-1
42	36.8125	Inf	0.000418274	25.1756	25.2956	25.0557	32.8738	0.509426	0.166734	10.1483	-1
42.6	37.5828	Inf	0.000424289	25.1794	25.2958	25.063	32.8721	0.509933	0.179645	10.1478	-1
43.2	38.1927	Inf	0.000430289	25.1642	25.2875	25.0408	32.8717	0.509405	0.204028	10.1478	-1
43.8	38.7764	Inf	0.000436271	25.182	25.3028	25.0612	32.8706	0.510727	0.194081	10.1482	-1
44.4	39.2081	Inf	0.000442289	25.169	25.2816	25.0565	32.8709	0.509026	0.178688	10.1478	-1
45	39.7178	Inf	0.000448273	25.1762	25.2882	25.0641	32.8724	0.509849	0.236456	10.1481	-1
45.6	40.2474	Inf	0.000454275	25.1679	25.2729	25.0629	32.8731	0.510863	0.339824	10.1482	-1
46.2	40.9027	Inf	0.000460284	25.1838	25.2847	25.0828	32.8728	0.510679	0.32588	10.148	-1
46.8	41.3661	Inf	0.000466274	25.175	25.284	25.066	32.8726	0.510912	0.261224	10.1486	-1
47.4	41.9008	Inf	0.000472275	25.1628	25.2775	25.0482	32.8721	0.50992	0.296272	10.1481	-1
48	42.5653	Inf	0.000478299	25.1654	25.2722	25.0587	32.8725	0.509996	0.302708	10.1483	-1
48.6	43.2635	Inf	0.0004843	25.1619	25.292	25.0317	32.8727	0.509777	0.27996	10.1483	-1
49.2	43.8738	Inf	0.00049027	25.1696	25.2761	25.063	32.8731	0.509468	0.209053	10.1481	-1
49.8	44.4554	Inf	0.000496295	25.1478	25.2543	25.0413	32.8733	0.510338	0.235652	10.1483	-1
50.4	45.1076	Inf	0.000502256	25.1795	25.283	25.076	32.8727	0.509791	0.31848	10.1481	-1
51	45.4328	Inf	0.000508278	25.1731	25.2873	25.059	32.8728	0.510132	0.303105	10.1483	-1
51.6	46.1649	Inf	0.000514269	25.1732	25.2733	25.0732	32.8726	0.509878	0.276834	10.148	-1
52.2	46.6372	Inf	0.00052026	25.1539	25.2742	25.0336	32.8722	0.510599	0.278361	10.1484	-1
52.8	47.3626	Inf	0.000526256	25.1782	25.2945	25.0619	32.8718	0.508562	0.362404	10.1484	-1
53.4	48.0827	Inf	0.000532261	25.1771	25.2909	25.0634	32.8732	0.509592	0.306804	10.1481	-1
54	48.7854	Inf	0.000538248	25.1579	25.2725	25.0433	32.8729	0.509841	0.280176	10.1482	-1
54.6	49.5205	Inf	0.000544245	25.1745	25.2844	25.0646	32.8737	0.510071	0.353429	10.1484	-1
55.2	50.0655	Inf	0.000550251	25.171	25.2772	25.0647	32.8738	0.51019	0.407115	10.1486	-1
55.8	50.6984	Inf	0.000556276	25.1792	25.2784	25.08	32.874	0.509934	0.383281	10.1484	-1
56.4	51.1044	Inf	0.000562276	25.1587	25.261	25.0565	32.8735	0.509893	0.339902	10.1481	-1
57	51.827	Inf	0.000568293	25.1837	25.2967	25.0707	32.873	0.510157	0.33452	10.148	-1
57.6	52.4793	Inf	0.000574253	25.1685	25.2827	25.0543	32.8727	0.509319	0.364849	10.1484	-1
58.2	53.1877	Inf	0.000580262	25.1901	25.3047	25.0755	32.8731	0.510593	0.30674	10.1485	-1
58.8	53.9601	Inf	0.00058625	25.1719	25.2955	25.0483	32.8733	0.509557	0.255877	10.1481	-1
59.4	54.756	Inf	0.000592239	25.1666	25.2856	25.0477	32.873	0.509812	0.338979	10.1482	-1
60	55.5944	Inf	0.000598251	25.1825	25.2855	25.0796	32.8749	0.509497	0.417787	10.1479	-1
60.6	56.3038	Inf	0.000604254	25.1697	25.2814	25.058	32.8724	0.510862	0.395549	10.1482	-1
61.2	56.9579	Inf	0.000610248	25.1686	25.2913	25.046	32.8725	0.509971	0.375665	10.1482	-1
61.8	57.7674	Inf	0.000616245	25.1477	25.2792	25.0161	32.8745	0.510086	0.388844	10.1485	-1
62.4	58.3945	Inf	0.000622261	25.1799	25.2859	25.0739	32.8714	0.50959	0.438006	10.148	-1
63	59.2363	Inf	0.000628236	25.1694	25.2776	25.0612	32.8758	0.509747	0.391717	10.1481	-1
63.6	59.9699	Inf	0.000634243	25.1881	25.2907	25.0855	32.8735	0.509588	0.348214	10.1486	-1
64.2	60.826	Inf	0.000640212	25.1734	25.2851	25.0616	32.8746	0.509208	0.3992	10.1483	-1
64.8	61.6796	Inf	0.000646235	25.1568	25.2686	25.0449	32.8726	0.510021	0.439925	10.148	-1
65.4	62.4338	Inf	0.000652227	25.1609	25.2793	25.0425	32.8739	0.509776	0.408187	10.148	-1
66	63.2403	Inf	0.00065823	25.1576	25.2675	25.0477	32.8744	0.509458	0.416043	10.1482	-1
66.6	64.315	Inf	0.000664237	25.1513	25.2699	25.0327	32.8755	0.510095	0.464557	10.1483	-1
67.2	65.1262	Inf	0.00067022	25.1666	25.2766	25.0565	32.8738	0.50993	0.52866	10.148	-1
67.8	65.9378	Inf	0.000676235	25.1718	25.2811	25.0626	32.8733	0.510441	0.49212	10.1484	-1
68.4	66.6765	Inf	0.000682261	25.1646	25.2597	25.0695	32.8736	0.510167	0.460071	10.1486	-1
69	67.49	Inf	0.000688209	25.1692	25.2838	25.0547	32.8742	0.510018	0.518447	10.1484	-1
69.6	68.31	Inf	0.000694236	25.1758	25.2823	25.0693	32.8735	0.509781	0.63082	10.1484	-1
70.2	69.1063	Inf	0.000700256	25.1659	25.2703	25.0614	32.8731	0.510633	0.610123	10.1484	-1
70.8	69.8771	Inf	0.000706228	25.1705	25.2783	25.0626	32.8735	0.510111	0.554042	10.1481	-1
71.4	70.6726	Inf	0.000712239	25.1512	25.2624	25.0399	32.8731	0.509668	0.613479	10.1485	-1
72	71.4157	Inf	0.000718261	25.1604	25.2778	25.0429	32.8736	0.510246	0.642321	10.1482	-1
72.6	72.0591	Inf	0.00072425	25.1743	25.2954	25.0531	32.8739	0.510241	0.550732	10.1482	-1
73.2	72.5682	Inf	0.00073027	25.1788	25.2927	25.0649	32.874	0.509861	0.508652	10.1481	-1
73.8	73.3906	Inf	0.000736278	25.1585	25.2643	25.0527	32.8737	0.508835	0.564278	10.1482	-1
74.4	74.1227	Inf	0.000742282	25.1684	25.2741	25.0627	32.8735	0.509826	0.591601	10.1481	-1
75	74.8643	Inf	0.000748284	25.1711	25.2672	25.075	32.8743	0.51157	0.541883	10.1484	-1
75.6	75.4935	Inf	0.000754265	25.1711	25.2818	25.0604	32.8736	0.509753	0.515438	10.1484	-1
76.2	76.1519	Inf	0.000760259	25.1656	25.2734	25.0579	32.874	0.509921	0.639978	10.1483	-1
76.8	76.8214	Inf	0.000766283	25.1725	25.2848	25.0602	32.875	0.510184	0.633687	10.1484	-1
77.4	77.4673	Inf	0.000772267	25.1832	25.2965	25.0699	32.875	0.509488	0.57921	10.1479	-1
78	77.9627	Inf	0.000778256	25.1638	25.2624	25.0653	32.8754	0.509786	0.651775	10.1482	-1
78.6	78.5802	Inf	0.000784252	25.1686	25.2821	25.0552	32.8748	0.510361	0.711532	10.1483	-1
79.2	79.0261	Inf	0.000790269	25.1675	25.2723	25.0628	32.8736	0.510878	0.744143	10.1481	-1
79.8	79.547	Inf	0.000796286	25.1897	25.3009	25.0786	32.8735	0.510201	0.654182	10.1484	-1
80.4	79.9298	Inf	0.000802275	25.161	25.267	25.055	32.8736	0.510677	0.596625	10.1482	-1
81	80.3164	Inf	0.000808264	25.1827	25.2902	25.0751	32.8744	0.510156	0.595137	10.1482	-1
81.6	80.8378	Inf	0.000814258	25.1638	25.2709	25.0566	32.8742	0.510918	0.554199	10.1479	-1
82.2	81.4542	Inf	0.000820239	25.1625	25.2615	25.0636	32.8743	0.510249	0.539662	10.148	-1
82.8	81.9637	Inf	0.000826265	25.1827	25.2833	25.0821	32.8749	0.51131	0.548352	10.1477	-1
83.4	82.6329	Inf	0.000832224	25.1714	25.2826	25.0602	32.8739	0.510303	0.656621	10.1481	-1
84	83.0727	Inf	0.000838234	25.1696	25.2792	25.0599	32.8739	0.510064	0.671707	10.148	-1
84.6	83.5731	Inf	0.00084426	25.17	25.2881	25.0519	32.8745	0.511346	0.60157	10.148	-1
85.2	84.0272	Inf	0.000850239	25.1751	25.292	25.0583	32.8744	0.510888	0.658622	10.1476	-1
85.8	84.5971	Inf	0.000856242	25.1644	25.2757	25.0532	32.8752	0.510005	0.695626	10.1477	-1
86.4	85.0089	Inf	0.000862233	25.1622	25.2759	25.0486	32.8754	0.51136	0.706709	10.1476	-1
87	85.3502	Inf	0.000868255	25.1809	25.2938	25.0679	32.8755	0.511297	0.66958	10.1482	-1
87.6	85.7312	Inf	0.000874227	25.1699	25.2789	25.0609	32.8738	0.510145	0.647292	10.1481	-1
88.2	86.1457	Inf	0.000880228	25.162	25.2685	25.0555	32.8745	0.510096	0.727239	10.1479	-1
88.8	86.4303	Inf	0.000886245	25.1736	25.2799	25.0673	32.8744	0.509608	0.7371	10.1479	-1
89.4	86.7254	Inf	0.000892237	25.1782	25.2859	25.0706	32.8748	0.510143	0.639896	10.148	-1
90	87.1222	Inf	0.000898233	25.1671	25.2732	25.0611	32.8742	0.510543	0.619349	10.1481	-1
90.6	87.3434	Inf	0.000904229	25.1839	25.2888	25.0791	32.8738	0.511228	0.587894	10.1478	-1
91.2	87.6588	Inf	0.00091025	25.1755	25.2816	25.0693	32.8752	0.509864	0.619566	10.148	-1
91.8	87.951	Inf	0.000916229	25.1743	25.2775	25.0711	32.874	0.510069	0.481423	10.1478	-1
92.4	88.2067	Inf	0.000922255	25.1678	25.2783	25.0574	32.8739	0.510134	0.515317	10.148	-1
93	88.5564	Inf	0.000928231	25.1732	25.275	25.0714	32.8741	0.509866	0.578935	10.1481	-1
93.6	88.6597	Inf	0.000934234	25.1666	25.2782	25.0551	32.8742	0.51029	0.577739	10.1481	-1
94.2	88.8401	Inf	0.000940234	25.1648	25.2726	25.057	32.875	0.510514	0.552235	10.1478	-1
94.8	89.0328	Inf	0.000946209	25.1829	25.2825	25.0832	32.8744	0.509872	0.539996	10.1479	-1
95.4	89.1479	Inf	0.000952233	25.1565	25.2517	25.0614	32.8748	0.510112	0.554853	10.1481	-1
96	89.2316	Inf	0.000958227	25.1707	25.2912	25.0502	32.8744	0.509915	0.568492	10.1482	-1
96.6	89.5219	Inf	0.000964241	25.1566	25.2643	25.049	32.8736	0.509513	0.502753	10.1481	-1
97.2	89.6042	Inf	0.000970227	25.1718	25.2671	25.0765	32.8758	0.510062	0.480298	10.1479	-1
97.8	89.8726	Inf	0.000976236	25.1711	25.2849	25.0573	32.8759	0.510076	0.530136	10.1481	-1
98.4	89.9616	Inf	0.000982223	25.1653	25.2742	25.0565	32.8744	0.511129	0.565537	10.1481	-1
99	90.2213	Inf	0.000988234	25.1833	25.2859	25.0808	32.8741	0.510665	0.478492	10.148	-1
99.6	90.2892	Inf	0.000994226	25.1619	25.2606	25.0632	32.8744	0.51061	0.456628	10.148	-1
100.2	90.2661	Inf	0.00100022	25.1731	25.29	25.0563	32.8756	0.510492	0.478346	10.1479	-1
100.8	90.2117	Inf	0.00100624	25.1828	25.2835	25.0822	32.8744	0.509927	0.45529	10.1482	-1
101.4	90.3157	Inf	0.00101221	25.1718	25.2636	25.0799	32.8761	0.510237	0.429054	10.1486	-1
102	90.4557	Inf	0.00101819	25.1903	25.2806	25.0999	32.8752	0.509342	0.478942	10.1482	-1
102.6	90.5432	Inf	0.00102421	25.1787	25.2809	25.0765	32.8737	0.510323	0.536014	10.1479	-1
103.2	90.6096	Inf	0.00103021	25.1676	25.2687	25.0665	32.8739	0.509583	0.535282	10.1481	-1
103.8	90.6377	Inf	0.00103623	25.1782	25.281	25.0754	32.8746	0.50957	0.496399	10.1482	-1
104.4	90.84	Inf	0.0010422	25.1688	25.2559	25.0816	32.8758	0.510528	0.487907	10.1479	-1
105	90.9145	Inf	0.0010482	25.1709	25.2737	25.0681	32.8753	0.510271	0.534215	10.1479	-1
105.6	90.8921	Inf	0.00105421	25.176	25.2813	25.0707	32.8762	0.510886	0.513703	10.1479	-1
106.2	90.9509	Inf	0.00106021	25.1648	25.2695	25.0601	32.8753	0.511086	0.43292	10.148	-1
106.8	90.9121	Inf	0.00106619	25.1855	25.2932	25.0778	32.8749	0.510066	0.475639	10.1476	-1
107.4	90.9734	Inf	0.00107219	25.1743	25.282	25.0666	32.8754	0.510557	0.520772	10.1479	-1
108	90.935	Inf	0.00107819	25.1675	25.2678	25.0671	32.8753	0.510651	0.499833	10.1483	-1
108.6	90.9048	Inf	0.00108421	25.171	25.273	25.069	32.8761	0.510058	0.452097	10.1477	-1
109.2	90.9712	Inf	0.00109018	25.1672	25.2679	25.0665	32.876	0.510887	0.481372	10.1476	-1
109.8	90.9956	Inf	0.0010962	25.1796	25.283	25.0762	32.8742	0.509772	0.466762	10.1478	-1
110.4	90.9432	Inf	0.00110222	25.1695	25.2733	25.0656	32.8767	0.510296	0.476519	10.1478	-1
111	90.9456	Inf	0.00110818	25.1782	25.2954	25.061	32.8767	0.510553	0.449438	10.1477	-1
111.6	90.8941	Inf	0.00111419	25.1701	25.2752	25.065	32.8774	0.510351	0.457474	10.1477	-1
112.2	90.7857	Inf	0.00112018	25.1695	25.2872	25.0518	32.8753	0.510063	0.54078	10.1481	-1
112.8	90.606	Inf	0.00112619	25.1704	25.2718	25.0691	32.8752	0.510216	0.508501	10.1477	-1
113.4	90.5943	Inf	0.00113218	25.1857	25.2992	25.0722	32.8766	0.510824	0.436147	10.1473	-1
114	90.488	Inf	0.0011382	25.1861	25.2903	25.0819	32.8767	0.509604	0.533071	10.1479	-1
114.6	90.3405	Inf	0.00114419	25.1732	25.2767	25.0697	32.8753	0.510019	0.49784	10.1478	-1
115.2	90.3387	Inf	0.0011502	25.1846	25.2998	25.0693	32.8764	0.510898	0.483357	10.1479	-1
115.8	90.2	Inf	0.0011562	25.1798	25.2802	25.0793	32.8761	0.509977	0.469849	10.1479	-1
116.4	90.0039	Inf	0.00116217	25.1846	25.2864	25.0828	32.8763	0.510402	0.472108	10.1478	-1
117	89.8971	Inf	0.00116818	25.1755	25.2823	25.0687	32.8771	0.509979	0.526025	10.1481	-1
117.6	89.794	Inf	0.00117419	25.1868	25.292	25.0817	32.8759	0.51062	0.525975	10.1479	-1
118.2	89.7346	Inf	0.00118017	25.1763	25.276	25.0766	32.876	0.50971	0.426551	10.1478	-1
118.8	89.6032	Inf	0.00118618	25.1619	25.2745	25.0493	32.8763	0.510915	0.473523	10.1479	-1
119.4	89.5138	Inf	0.00119216	25.1817	25.2911	25.0723	32.8746	0.509987	0.48091	10.1477	-1
120	89.3827	Inf	0.0011982	25.1692	25.2604	25.0781	32.8766	0.510619	0.488602	10.148	-1
120.6	89.2613	Inf	0.00120416	25.1751	25.2903	25.06	32.8766	0.510696	0.460567	10.1479	-1
121.2	89.161	Inf	0.00121016	25.1719	25.2661	25.0778	32.8761	0.51019	0.518181	10.148	-1
121.8	89.0572	Inf	0.00121615	25.1753	25.2849	25.0657	32.8765	0.510681	0.61292	10.1482	-1
122.4	89.0219	Inf	0.0012222	25.1702	25.2884	25.052	32.8767	0.509554	0.537318	10.1481	-1
123	88.903	Inf	0.0012282	25.185	25.2944	25.0756	32.8775	0.509958	0.448002	10.1476	-1
123.6	88.8368	Inf	0.00123417	25.1701	25.2717	25.0684	32.8756	0.510906	0.462776	10.148	-1
124.2	88.8457	Inf	0.00124016	25.1761	25.2739	25.0784	32.8759	0.509663	0.447493	10.1477	-1
124.8	88.7256	Inf	0.00124618	25.1632	25.2765	25.0499	32.8769	0.509743	0.423614	10.148	-1
125.4	88.6198	Inf	0.00125217	25.1629	25.2669	25.0589	32.8762	0.510462	0.355125	10.148	-1
126	88.5442	Inf	0.00125815	25.171	25.2818	25.0602	32.8757	0.510019	0.38297	10.1477	-1
126.6	88.5217	Inf	0.00126416	25.1745	25.2821	25.067	32.8771	0.510083	0.442874	10.148	-1
127.2	88.5476	Inf	0.00127018	25.1852	25.2899	25.0805	32.877	0.509925	0.440064	10.1479	-1
127.8	88.4689	Inf	0.00127618	25.1709	25.2614	25.0805	32.8758	0.510444	0.441023	10.1477	-1
128.4	88.4562	Inf	0.00128216	25.1927	25.2927	25.0927	32.8779	0.510099	0.475478	10.1481	-1
129	88.3741	Inf	0.00128818	25.1782	25.2851	25.0713	32.8769	0.509887	0.473646	10.1482	-1
129.6	88.2472	Inf	0.00129418	25.176	25.2782	25.0738	32.876	0.510285	0.448617	10.1478	-1
130.2	88.2329	Inf	0.00130016	25.1788	25.2873	25.0703	32.8768	0.509645	0.436334	10.148	-1
130.8	88.2397	Inf	0.00130616	25.1853	25.284	25.0866	32.8772	0.50974	0.440788	10.1479	-1
131.4	88.095	Inf	0.00131217	25.1777	25.2773	25.0781	32.8764	0.510653	0.497381	10.1482	-1
132	87.9849	Inf	0.00131817	25.1634	25.2603	25.0664	32.8768	0.511462	0.441182	10.1477	-1
132.6	87.9816	Inf	0.00132414	25.1865	25.289	25.084	32.878	0.509739	0.358678	10.1477	-1
133.2	88.0328	Inf	0.00133011	25.1652	25.2615	25.0688	32.8753	0.509238	0.413772	10.1478	-1
133.8	87.9005	Inf	0.0013361	25.1865	25.2828	25.0901	32.8774	0.510758	0.421613	10.1477	-1
134.4	87.97	Inf	0.00134209	25.1651	25.2711	25.0592	32.8773	0.511006	0.407438	10.1478	-1
135	87.8916	Inf	0.0013481	25.1873	25.2868	25.0879	32.8773	0.510108	0.313314	10.1476	-1
135.6	87.8964	Inf	0.0013541	25.1759	25.2715	25.0803	32.8771	0.510707	0.396119	10.1482	-1
136.2	87.8296	Inf	0.0013601	25.1754	25.2782	25.0727	32.8771	0.510442	0.463277	10.1478	-1
136.8	87.8478	Inf	0.00136608	25.1631	25.2563	25.0698	32.8765	0.510916	0.406331	10.1483	-1
137.4	87.7229	Inf	0.00137209	25.182	25.2692	25.0949	32.8778	0.511132	0.395642	10.1479	-1
138	87.7154	Inf	0.00137806	25.1719	25.2717	25.072	32.8779	0.509983	0.438514	10.1479	-1
138.6	87.6687	Inf	0.00138406	25.1633	25.2721	25.0545	32.8771	0.51061	0.446287	10.1476	-1
139.2	87.6385	Inf	0.0013901	25.1812	25.2886	25.0739	32.8778	0.511301	0.397704	10.148	-1
139.8	87.6755	Inf	0.00139606	25.1688	25.2801	25.0574	32.8767	0.510234	0.350252	10.1479	-1
140.4	87.5997	Inf	0.00140206	25.1824	25.2869	25.0778	32.8778	0.510712	0.384829	10.148	-1
141	87.5522	Inf	0.00140808	25.1761	25.2702	25.082	32.8786	0.511187	0.406565	10.1482	-1
141.6	87.5804	Inf	0.00141411	25.1859	25.3018	25.07	32.8771	0.510125	0.362084	10.1482	-1
142.2	87.415	Inf	0.00142007	25.1797	25.2832	25.0761	32.8774	0.509667	0.360215	10.1481	-1
142.8	87.4771	Inf	0.00142606	25.1927	25.3012	25.0843	32.8774	0.510733	0.360905	10.1479	-1
143.4	87.4281	Inf	0.00143207	25.1819	25.2817	25.0821	32.8773	0.511035	0.415974	10.1482	-1
144	87.3443	Inf	0.00143811	25.183	25.2743	25.0916	32.8774	0.511019	0.386816	10.1479	-1
144.6	87.2586	Inf	0.00144406	25.1955	25.3017	25.0893	32.8787	0.510495	0.363815	10.148	-1
145.2	87.2442	Inf	0.00145005	25.1728	25.2707	25.0749	32.8777	0.510148	0.441363	10.1476	-1
145.8	87.2002	Inf	0.00145607	25.1929	25.2973	25.0885	32.8788	0.510846	0.518391	10.1479	-1
146.4	87.244	Inf	0.00146207	25.1774	25.2782	25.0766	32.876	0.510554	0.436841	10.1482	-1
147	87.2475	Inf	0.00146805	25.1824	25.284	25.0808	32.8775	0.510737	0.439309	10.1478	-1
147.6	87.256	Inf	0.00147403	25.1906	25.2842	25.0969	32.878	0.511096	0.489543	10.1477	-1
148.2	87.238	Inf	0.00148004	25.1936	25.2988	25.0884	32.8793	0.511114	0.484266	10.1477	-1
148.8	87.1187	Inf	0.00148611	25.1855	25.288	25.0829	32.8772	0.511448	0.455274	10.1481	-1
149.4	87.0312	Inf	0.00149205	25.171	25.2641	25.078	32.8779	0.51139	0.415531	10.148	-1
150	86.9555	Inf	0.00149804	25.1711	25.2792	25.063	32.8784	0.51067	0.471669	10.148	-1
150.6	87.0307	Inf	0.00150408	25.1827	25.2884	25.0771	32.8779	0.510374	0.496579	10.148	-1
151.2	87.0781	Inf	0.00151006	25.1788	25.2677	25.09	32.876	0.511413	0.463253	10.1479	-1
151.8	86.9779	Inf	0.00151604	25.1845	25.2944	25.0745	32.8785	0.510352	0.448978	10.1482	-1
152.4	86.9941	Inf	0.00152205	25.1976	25.3011	25.0942	32.878	0.510285	0.495801	10.1479	-1
153	87.1166	Inf	0.00152806	25.1734	25.2729	25.0739	32.8797	0.510836	0.536315	10.1483	-1
153.6	87.1134	Inf	0.00153406	25.185	25.293	25.0769	32.8766	0.512185	0.461176	10.1481	-1
154.2	87.0505	Inf	0.00154006	25.1847	25.2971	25.0722	32.8768	0.51039	0.446629	10.1478	-1
154.8	87.0814	Inf	0.00154604	25.1809	25.2822	25.0796	32.8788	0.511365	0.530936	10.1479	-1
155.4	87.1491	Inf	0.00155203	25.1839	25.293	25.0749	32.8771	0.511748	0.577343	10.1487	-1
156	87.0359	Inf	0.00155805	25.1653	25.2725	25.058	32.8791	0.510252	0.530306	10.1478	-1
156.6	87.0457	Inf	0.00156404	25.1844	25.271	25.0978	32.8794	0.51172	0.501782	10.1479	-1
157.2	87.0625	Inf	0.00157008	25.1867	25.2861	25.0873	32.8781	0.511056	0.508309	10.1481	-1
157.8	87.0644	Inf	0.00157609	25.17	25.2784	25.0616	32.8787	0.510211	0.498426	10.148	-1
158.4	87.1624	Inf	0.00158206	25.1803	25.2839	25.0766	32.8757	0.510333	0.406616	10.1484	-1
159	87.109	Inf	0.00158808	25.1801	25.2894	25.0708	32.8783	0.511323	0.402938	10.1482	-1
159.6	87.2257	Inf	0.00159405	25.1639	25.2725	25.0552	32.8776	0.509635	0.462914	10.1479	-1
160.2	87.3383	Inf	0.00160005	25.174	25.2685	25.0796	32.8766	0.510422	0.544302	10.1481	-1
160.8	87.2057	Inf	0.00160609	25.1855	25.2915	25.0794	32.8764	0.510299	0.533994	10.1482	-1
161.4	87.3056	Inf	0.00161208	25.1774	25.2802	25.0746	32.8784	0.510483	0.499978	10.1481	-1
162	87.3686	Inf	0.00161809	25.1859	25.2816	25.0901	32.8787	0.511029	0.535598	10.148	-1
162.6	87.2531	Inf	0.0016241	25.1878	25.3032	25.0725	32.8811	0.510498	0.547811	10.1481	-1
163.2	87.3509	Inf	0.00163005	25.1882	25.2973	25.0792	32.8755	0.510595	0.477722	10.1482	-1
163.8	87.3272	Inf	0.00163607	25.1776	25.2746	25.0806	32.8782	0.51031	0.454563	10.1477	-1
164.4	87.4633	Inf	0.00164205	25.1903	25.2965	25.0841	32.8781	0.510366	0.522558	10.1478	-1
165	87.4818	Inf	0.00164808	25.176	25.273	25.0791	32.8795	0.511085	0.615122	10.1482	-1
165.6	87.6242	Inf	0.00165409	25.1792	25.2822	25.0761	32.8783	0.510727	0.540039	10.1483	-1
166.2	87.461	Inf	0.00166007	25.1851	25.2915	25.0787	32.8793	0.510499	0.456295	10.1478	-1
166.8	87.5676	Inf	0.00166608	25.1799	25.2914	25.0683	32.8781	0.510211	0.524546	10.1479	-1
167.4	87.723	Inf	0.00167209	25.185	25.2881	25.0818	32.879	0.511072	0.554556	10.1479	-1
168	87.6373	Inf	0.00167808	25.1948	25.2947	25.0948	32.8781	0.509359	0.457535	10.1481	-1
168.6	87.6004	Inf	0.00168407	25.1731	25.2783	25.0679	32.88	0.510096	0.454846	10.1482	-1
169.2	87.5781	Inf	0.00169008	25.1903	25.2876	25.093	32.8793	0.510811	0.503661	10.1483	-1
169.8	87.7709	Inf	0.00169608	25.1997	25.3092	25.0902	32.8778	0.510868	0.53382	10.1476	-1
170.4	87.8642	Inf	0.00170208	25.1891	25.298	25.0802	32.8793	0.510888	0.53002	10.148	-1
171	87.7526	Inf	0.00170807	25.1835	25.289	25.0781	32.8786	0.510784	0.5185	10.1481	-1
171.6	87.8817	Inf	0.00171406	25.1968	25.315	25.0787	32.8788	0.511577	0.548158	10.1483	-1
172.2	87.9557	Inf	0.00172007	25.1857	25.2782	25.0933	32.879	0.509961	0.539754	10.1477	-1
172.8	87.9932	Inf	0.00172607	25.1841	25.2761	25.0922	32.8792	0.511093	0.463288	10.1478	-1
173.4	88.0229	Inf	0.00173205	25.1827	25.2813	25.0841	32.8788	0.511672	0.431985	10.1481	-1
174	88.1265	Inf	0.00173804	25.1977	25.2901	25.1052	32.8796	0.511118	0.496409	10.1478	-1
174.6	88.0742	Inf	0.00174407	25.2014	25.3038	25.0989	32.8787	0.51042	0.518416	10.1481	-1
175.2	88.1262	Inf	0.00175006	25.1878	25.2946	25.081	32.8788	0.510434	0.429104	10.148	-1
175.8	88.1679	Inf	0.00175605	25.1926	25.2886	25.0966	32.8794	0.510592	0.44349	10.1471	-1
176.4	88.1613	Inf	0.00176204	25.1885	25.2977	25.0793	32.8788	0.5107	0.528162	10.1477	-1
177	88.4091	Inf	0.00176806	25.1655	25.2721	25.0589	32.8777	0.510467	0.529798	10.148	-1
177.6	88.3922	Inf	0.00177406	25.1718	25.2683	25.0754	32.8789	0.51054	0.493585	10.1477	-1
178.2	88.51	Inf	0.00178003	25.184	25.2889	25.079	32.8785	0.510514	0.528988	10.1474	-1
178.8	88.4743	Inf	0.00178604	25.1841	25.2907	25.0776	32.8795	0.510288	0.582706	10.1474	-1
179.4	88.5249	Inf	0.00179203	25.1909	25.295	25.0868	32.8787	0.511097	0.587785	10.1478	-1
180	88.4555	Inf	0.00179803	25.1777	25.2745	25.0809	32.8799	0.510784	0.508845	10.1477	-1
180.6	88.644	Inf	0.00180402	25.1939	25.2902	25.0975	32.8777	0.510778	0.530961	10.1482	-1
181.2	88.6766	Inf	0.00181005	25.1778	25.2632	25.0923	32.8791	0.510081	0.54442	10.1479	-1
181.8	88.8567	Inf	0.00181605	25.1828	25.2739	25.0916	32.8805	0.510293	0.573482	10.1482	-1
182.4	88.7337	Inf	0.00182205	25.1792	25.2855	25.0729	32.8782	0.511113	0.475375	10.1482	-1
183	88.7924	Inf	0.00182804	25.1842	25.2937	25.0747	32.8798	0.510835	0.498742	10.1483	-1
183.6	88.8661	Inf	0.00183404	25.1864	25.2806	25.0922	32.8785	0.510591	0.569115	10.1479	-1
184.2	88.9027	Inf	0.00184004	25.1761	25.2766	25.0757	32.8802	0.511442	0.534807	10.148	-1
184.8	88.946	Inf	0.00184605	25.1782	25.2633	25.093	32.8787	0.511	0.521563	10.1476	-1
185.4	88.8808	Inf	0.00185204	25.1797	25.2916	25.0677	32.8805	0.510393	0.484149	10.1479	-1
186	88.8981	Inf	0.00185805	25.1965	25.306	25.087	32.8809	0.510721	0.539308	10.1481	-1
186.6	88.9901	Inf	0.00186405	25.1825	25.2835	25.0815	32.8794	0.510616	0.522533	10.1476	-1
187.2	88.911	Inf	0.00187003	25.1903	25.2955	25.0851	32.8806	0.511836	0.460092	10.1482	-1
187.8	89.1082	Inf	0.00187602	25.1832	25.2841	25.0822	32.8787	0.510852	0.493637	10.1479	-1
188.4	89.1379	Inf	0.00188202	25.1933	25.3031	25.0836	32.8803	0.510756	0.543682	10.1481	-1
189	89.1024	Inf	0.00188806	25.1966	25.3048	25.0884	32.8788	0.511264	0.56372	10.1482	-1
189.6	89.1786	Inf	0.00189404	25.1923	25.2867	25.0979	32.8797	0.511271	0.486853	10.1479	-1
190.2	89.0927	Inf	0.00190005	25.1867	25.2882	25.0853	32.8791	0.511085	0.490485	10.1481	-1
190.8	88.9977	Inf	0.00190603	25.1925	25.2929	25.092	32.8799	0.51046	0.512552	10.1485	-1
191.4	89.0126	Inf	0.00191203	25.1953	25.299	25.0916	32.8787	0.510589	0.463701	10.1481	-1
192	89.0517	Inf	0.00191806	25.1911	25.2935	25.0887	32.8781	0.510942	0.370089	10.1479	-1
192.6	89.1792	Inf	0.00192401	25.1951	25.2934	25.0968	32.8797	0.510747	0.411046	10.1479	-1
193.2	89.1187	Inf	0.00193003	25.1949	25.3005	25.0893	32.8791	0.511635	0.47634	10.1482	-1
193.8	89.2498	Inf	0.00193601	25.205	25.3018	25.1082	32.8795	0.510808	0.520473	10.1479	-1
194.4	89.218	Inf	0.00194203	25.1898	25.3014	25.0782	32.8793	0.511027	0.452435	10.1484	-1
195	89.1649	Inf	0.00194801	25.1683	25.2637	25.0728	32.8792	0.510368	0.471795	10.1483	-1
195.6	89.1705	Inf	0.00195403	25.1934	25.2908	25.0959	32.881	0.511869	0.504475	10.1482	-1
196.2	89.0677	Inf	0.00196001	25.1918	25.2853	25.0984	32.8795	0.511046	0.436966	10.1485	-1
196.8	89.1905	Inf	0.00196601	25.1842	25.2852	25.0831	32.8787	0.510365	0.391768	10.1479	-1
197.4	89.247	Inf	0.00197201	25.1894	25.2932	25.0856	32.8783	0.511184	0.459781	10.148	-1
198	89.3253	Inf	0.00197799	25.1975	25.3165	25.0785	32.8787	0.510333	0.473742	10.1478	-1
198.6	89.3413	Inf	0.00198399	25.1851	25.2921	25.0781	32.8802	0.509787	0.491204	10.1482	-1
199.2	89.3095	Inf	0.00199	25.178	25.2869	25.069	32.8797	0.510799	0.421496	10.1482	-1
199.8	89.4524	Inf	0.00199601	25.1881	25.2944	25.0819	32.8808	0.510629	0.464057	10.1481	-1
200.4	89.4863	Inf	0.002002	25.1876	25.2928	25.0824	32.8795	0.510672	0.448713	10.1479	-1
201	89.4542	Inf	0.002008	25.1923	25.3022	25.0823	32.8798	0.511051	0.416087	10.1482	-1
201.6	89.5162	Inf	0.00201401	25.1905	25.2905	25.0904	32.8793	0.511352	0.373371	10.148	-1
202.2	89.5639	Inf	0.00201999	25.1903	25.2968	25.0838	32.8807	0.510956	0.40353	10.1477	-1
202.8	89.7452	Inf	0.002026	25.1837	25.2893	25.0781	32.8794	0.511071	0.473254	10.1475	-1
203.4	89.9097	Inf	0.00203199	25.1983	25.2962	25.1005	32.8784	0.511157	0.486267	10.1478	-1
204	90.0904	Inf	0.00203801	25.1992	25.3056	25.0928	32.8785	0.511121	0.456971	10.1475	-1
204.6	90.1565	Inf	0.00204399	25.1853	25.2879	25.0827	32.88	0.510142	0.476065	10.1485	-1
205.2	90.2142	Inf	0.00205	25.1856	25.2961	25.0752	32.88	0.510815	0.529779	10.1479	-1
205.8	90.2355	Inf	0.00205603	25.1897	25.3074	25.0721	32.8796	0.510505	0.490283	10.1477	-1
206.4	90.3864	Inf	0.00206201	25.1977	25.3009	25.0946	32.8787	0.510798	0.405612	10.148	-1
207	90.1969	Inf	0.00206798	25.1939	25.3065	25.0813	32.8799	0.510637	0.461561	10.1476	-1
207.6	90.3842	Inf	0.00207399	25.2019	25.3105	25.0934	32.8795	0.510861	0.487898	10.1476	-1
208.2	90.4286	Inf	0.00207999	25.1852	25.2846	25.0859	32.8793	0.510576	0.44579	10.1476	-1
208.8	90.5067	Inf	0.00208598	25.1951	25.2996	25.0907	32.8784	0.510632	0.406001	10.1477	-1
209.4	90.657	Inf	0.00209198	25.1837	25.2943	25.0731	32.8787	0.510947	0.485391	10.1477	-1
210	90.7411	Inf	0.002098	25.1832	25.279	25.0874	32.8803	0.510431	0.481071	10.1477	-1
210.6	90.744	Inf	0.00210399	25.1906	25.3015	25.0796	32.8784	0.511059	0.454949	10.1477	-1
211.2	90.7529	Inf	0.00210997	25.1851	25.2955	25.0747	32.8795	0.511142	0.453125	10.1479	-1
211.8	90.6888	Inf	0.00211599	25.2005	25.2995	25.1016	32.8796	0.510613	0.526226	10.1477	-1
212.4	90.7466	Inf	0.00212197	25.1835	25.2923	25.0748	32.8791	0.511861	0.607986	10.1476	-1
213	90.6969	Inf	0.00212799	25.1943	25.3021	25.0866	32.8793	0.51053	0.557403	10.1474	-1
213.6	90.8333	Inf	0.00213399	25.1894	25.3015	25.0772	32.8807	0.51094	0.552355	10.1476	-1
214.2	90.9488	Inf	0.00213997	25.1878	25.291	25.0846	32.8803	0.511475	0.534578	10.1475	-1
214.8	90.8929	Inf	0.00214598	25.1901	25.2936	25.0866	32.8787	0.510533	0.466479	10.148	-1
215.4	90.8114	Inf	0.00215198	25.1924	25.2931	25.0917	32.8799	0.511193	0.493348	10.1479	-1
216	90.8743	Inf	0.00215795	25.1972	25.3076	25.0868	32.8799	0.510934	0.478487	10.1478	-1
216.6	90.8643	Inf	0.00216394	25.1994	25.2943	25.1044	32.8795	0.511189	0.587072	10.1478	-1
217.2	90.7425	Inf	0.00216997	25.1869	25.2905	25.0832	32.8786	0.510746	0.737173	10.1479	-1
217.8	90.7042	Inf	0.00217598	25.2022	25.2876	25.1168	32.8801	0.511664	0.794251	10.1478	-1
218.4	90.7623	Inf	0.00218195	25.1782	25.2898	25.0666	32.8788	0.511444	0.869185	10.1479	-1
219	90.7349	Inf	0.00218795	25.1884	25.2859	25.0909	32.8792	0.510985	0.90455	10.1481	-1
219.6	90.7917	Inf	0.00219399	25.2029	25.3071	25.0987	32.8796	0.511931	0.929741	10.1475	-1
220.2	90.8667	Inf	0.00219997	25.1937	25.3045	25.0829	32.8811	0.511183	0.876306	10.1477	-1
220.8	90.8292	Inf	0.00220594	25.1955	25.3002	25.0909	32.8802	0.511204	0.865866	10.1479	-1
221.4	90.8069	Inf	0.00221197	25.1971	25.3076	25.0867	32.88	0.510984	0.908788	10.1479	-1
222	90.8693	Inf	0.00221797	25.1979	25.3198	25.0761	32.8799	0.510954	0.953137	10.1478	-1
222.6	90.8991	Inf	0.00222395	25.1991	25.2886	25.1096	32.8801	0.511099	0.919838	10.148	-1
223.2	90.9157	Inf	0.00222998	25.1747	25.2774	25.0719	32.8796	0.511466	0.836566	10.1477	-1
223.8	91.0129	Inf	0.00223598	25.196	25.2934	25.0986	32.879	0.511428	0.883235	10.1476	-1
224.4	91.0723	Inf	0.00224196	25.1862	25.2809	25.0915	32.8806	0.511513	0.898807	10.1478	-1
225	91.1482	Inf	0.00224798	25.2033	25.3016	25.105	32.8809	0.510878	0.858228	10.1477	-1
225.6	91.147	Inf	0.00225394	25.186	25.2905	25.0814	32.8797	0.511246	0.845658	10.1479	-1
226.2	91.2617	Inf	0.00225996	25.1934	25.3109	25.076	32.8795	0.511257	0.913	10.1474	-1
226.8	91.3224	Inf	0.00226596	25.1968	25.3045	25.0891	32.8807	0.511899	0.939994	10.148	-1
227.4	91.3881	Inf	0.00227192	25.1922	25.3009	25.0835	32.88	0.51173	0.886866	10.1476	-1
228	91.2545	Inf	0.00227791	25.1921	25.2943	25.0898	32.8804	0.511348	0.859649	10.1477	-1
228.6	91.3587	Inf	0.00228393	25.2099	25.3048	25.1149	32.8798	0.512198	0.886624	10.1478	-1
229.2	91.4988	Inf	0.00228992	25.1875	25.2871	25.088	32.8817	0.511809	0.89003	10.1475	-1
229.8	91.5653	Inf	0.00229591	25.1927	25.3001	25.0852	32.8809	0.51134	0.83132	10.1475	-1
230.4	91.587	Inf	0.00230188	25.2115	25.3178	25.1053	32.8802	0.51184	0.813948	10.1479	-1
231	91.7574	Inf	0.00230787	25.1929	25.3046	25.0813	32.8788	0.511114	0.871582	10.1479	-1
231.6	91.6591	Inf	0.00231387	25.2176	25.3263	25.1089	32.8797	0.510288	0.885211	10.1478	-1
232.2	91.5337	Inf	0.0023199	25.2084	25.3159	25.1008	32.8788	0.511481	0.840927	10.1473	-1
232.8	91.8149	Inf	0.00232588	25.1969	25.3083	25.0855	32.8804	0.511386	0.775646	10.1476	-1
233.4	91.7976	Inf	0.00233186	25.1974	25.3045	25.0902	32.8819	0.511027	0.826956	10.1476	-1
234	91.7316	Inf	0.00233787	25.203	25.322	25.084	32.8805	0.511493	0.814328	10.1479	-1
234.6	91.9402	Inf	0.00234389	25.2008	25.3025	25.0991	32.879	0.510146	0.737592	10.1475	-1
235.2	91.9802	Inf	0.00234985	25.188	25.2827	25.0934	32.8808	0.511646	0.75549	10.1476	-1
235.8	92.0507	Inf	0.00235587	25.1984	25.3069	25.0898	32.8795	0.512179	0.818038	10.1476	-1
236.4	92.1533	Inf	0.00236187	25.1893	25.2792	25.0995	32.8811	0.510888	0.861107	10.148	-1
237	92.1555	Inf	0.00236787	25.1819	25.2899	25.0739	32.8807	0.512143	0.817625	10.148	-1
237.6	92.3789	Inf	0.00237386	25.1999	25.3012	25.0986	32.8805	0.512139	0.812863	10.1477	-1
238.2	92.2676	Inf	0.00237985	25.2055	25.3032	25.1077	32.8811	0.511548	0.85478	10.148	-1
238.8	92.3339	Inf	0.00238589	25.1857	25.3033	25.0681	32.8805	0.51181	0.878562	10.1481	-1
239.4	92.3096	Inf	0.0023919	25.1948	25.3093	25.0804	32.8809	0.511606	0.802162	10.148	-1
240	92.4304	Inf	0.00239792	25.1987	25.3164	25.081	32.8795	0.511373	0.780083	10.1482	-1
240.6	92.5246	Inf	0.00240393	25.1886	25.3062	25.071	32.8805	0.513031	0.842006	10.1484	-1
241.2	92.5361	Inf	0.00240994	25.1968	25.3029	25.0906	32.88	0.512256	0.852295	10.1477	-1
241.8	92.6881	Inf	0.00241592	25.188	25.3029	25.0732	32.8788	0.511148	0.831681	10.1477	-1
242.4	92.6892	Inf	0.00242189	25.1889	25.2896	25.0881	32.8791	0.510551	0.802022	10.1476	-1
243	92.6689	Inf	0.00242786	25.2074	25.3075	25.1074	32.8819	0.511059	0.894343	10.1477	-1
243.6	92.8197	Inf	0.00243388	25.1986	25.3079	25.0893	32.8811	0.51184	0.868907	10.1477	-1
244.2	92.8385	Inf	0.00243984	25.1893	25.2945	25.084	32.8802	0.511721	0.847103	10.1481	-1
244.8	92.8224	Inf	0.00244586	25.1844	25.281	25.0878	32.88	0.512926	0.833713	10.1477	-1
245.4	92.9957	Inf	0.00245192	25.1873	25.303	25.0716	32.8812	0.512575	0.932004	10.1478	-1
246	93.0569	Inf	0.00245792	25.1833	25.2835	25.0832	32.8813	0.511127	0.963016	10.1477	-1
246.6	93.0539	Inf	0.00246393	25.2032	25.3105	25.0959	32.8806	0.512052	0.871707	10.1482	-1
247.2	93.0726	Inf	0.00246989	25.1946	25.3046	25.0846	32.8807	0.511844	0.878606	10.1477	-1
247.8	93.0818	Inf	0.00247591	25.1992	25.3104	25.088	32.8802	0.511286	0.929634	10.1476	-1
248.4	93.3098	Inf	0.00248191	25.2006	25.3211	25.0801	32.8797	0.510851	0.926355	10.1476	-1
249	93.361	Inf	0.00248791	25.202	25.3141	25.0899	32.8809	0.511475	0.883342	10.1479	-1
249.6	93.4745	Inf	0.0024939	25.1918	25.2988	25.0848	32.8805	0.512419	0.861806	10.148	-1
250.2	93.5068	Inf	0.00249989	25.2088	25.3159	25.1017	32.8791	0.511175	0.919564	10.1475	-1
250.8	93.4814	Inf	0.00250591	25.1984	25.3009	25.0959	32.8802	0.511972	0.922203	10.1479	-1
251.4	93.6418	Inf	0.00251191	25.1946	25.306	25.0832	32.8802	0.512099	0.911712	10.1477	-1
252	93.7059	Inf	0.00251789	25.2033	25.2979	25.1087	32.8821	0.511487	0.880781	10.1478	-1
252.6	93.8063	Inf	0.0025239	25.1907	25.294	25.0874	32.882	0.511712	0.943324	10.1473	-1
253.2	93.92	Inf	0.00252991	25.1948	25.3049	25.0847	32.8805	0.511788	0.921887	10.148	-1
253.8	93.9474	Inf	0.0025359	25.1994	25.2986	25.1003	32.8813	0.511566	0.880705	10.1477	-1
254.4	94.0343	Inf	0.00254188	25.1993	25.3019	25.0967	32.8803	0.512148	0.915954	10.1479	-1
255	94.2095	Inf	0.00254789	25.1925	25.2992	25.0857	32.8803	0.512614	1.0085	10.1473	-1
255.6	94.3408	Inf	0.00255391	25.1886	25.2939	25.0834	32.8807	0.512621	1.02019	10.1479	-1
256.2	94.4687	Inf	0.0025599	25.189	25.2967	25.0813	32.8812	0.513554	0.977665	10.1476	-1
256.8	94.5409	Inf	0.0025659	25.2053	25.311	25.0997	32.8816	0.512095	0.965217	10.1482	-1
257.4	94.6674	Inf	0.00257188	25.2167	25.3238	25.1096	32.8803	0.512033	0.978863	10.148	-1
258	94.8896	Inf	0.00257788	25.1995	25.2932	25.1059	32.8809	0.510775	0.9474	10.1479	-1
258.6	94.8637	Inf	0.00258388	25.2038	25.3157	25.0919	32.8824	0.511341	0.885034	10.1475	-1
259.2	95.1129	Inf	0.00258988	25.2049	25.312	25.0978	32.8813	0.512123	0.910317	10.1482	-1
259.8	95.1143	Inf	0.00259588	25.2028	25.3066	25.099	32.8815	0.51217	1.00747	10.1472	-1
260.4	95.2625	Inf	0.00260188	25.2113	25.3124	25.1102	32.8805	0.510804	1.02396	10.1478	-1
261	95.2804	Inf	0.00260788	25.1966	25.3024	25.0908	32.8795	0.51112	1.0056	10.1475	-1
261.6	95.5055	Inf	0.00261388	25.1983	25.2974	25.0991	32.8822	0.512817	1.036	10.1475	-1
262.2	95.4867	Inf	0.00261989	25.1932	25.3114	25.075	32.881	0.513287	1.03114	10.1475	-1
262.8	95.5401	Inf	0.00262587	25.1944	25.3107	25.0781	32.8822	0.511957	1.06131	10.1473	-1
263.4	95.7222	Inf	0.00263188	25.2019	25.3189	25.085	32.8807	0.511859	0.94206	10.1478	-1
264	95.702	Inf	0.00263787	25.2054	25.3085	25.1022	32.8813	0.511812	0.980015	10.1482	-1
264.6	96.0735	Inf	0.00264385	25.188	25.2968	25.0791	32.8817	0.512866	1.08829	10.1478	-1
265.2	96.0794	Inf	0.00264989	25.2129	25.3204	25.1053	32.881	0.511466	1.08403	10.1476	-1
265.8	96.078	Inf	0.00265588	25.2038	25.3084	25.0993	32.8802	0.512846	1.03114	10.1478	-1
266.4	96.1118	Inf	0.00266186	25.2183	25.3461	25.0906	32.8804	0.512496	1.08184	10.1473	-1
267	96.218	Inf	0.00266786	25.1973	25.2913	25.1032	32.8816	0.512422	1.09616	10.1471	-1
267.6	96.3027	Inf	0.00267388	25.21	25.3178	25.1023	32.8808	0.51262	1.07272	10.1477	-1
268.2	96.3107	Inf	0.00267987	25.2056	25.2998	25.1114	32.8808	0.512128	1.02023	10.1479	-1
268.8	96.3829	Inf	0.00268586	25.1808	25.2883	25.0734	32.8821	0.513158	1.04539	10.1479	-1
269.4	96.4856	Inf	0.00269185	25.221	25.3245	25.1175	32.8818	0.512441	1.17009	10.1476	-1
270	96.6681	Inf	0.00269786	25.194	25.3056	25.0824	32.8806	0.511798	1.18863	10.1479	-1
270.6	96.7205	Inf	0.00270385	25.1969	25.2991	25.0946	32.8814	0.513195	1.1528	10.1478	-1
271.2	96.791	Inf	0.00270984	25.1911	25.3004	25.0818	32.8809	0.511903	1.18937	10.1478	-1
271.8	96.8917	Inf	0.00271585	25.2157	25.3296	25.1018	32.8813	0.51194	1.21061	10.1475	-1
272.4	96.9204	Inf	0.00272187	25.2072	25.3046	25.1098	32.8799	0.512368	1.15576	10.1478	-1
273	96.9366	Inf	0.00272785	25.1992	25.307	25.0915	32.8821	0.512123	1.09382	10.1477	-1
273.6	97.0939	Inf	0.00273384	25.2186	25.3266	25.1106	32.8812	0.511901	1.0695	10.1477	-1
274.2	97.284	Inf	0.00273986	25.2006	25.304	25.0972	32.8818	0.511803	1.1092	10.1477	-1
274.8	97.3906	Inf	0.00274586	25.197	25.2954	25.0986	32.8806	0.511325	1.06485	10.1474	-1
275.4	97.4069	Inf	0.00275183	25.2192	25.3187	25.1198	32.8804	0.512376	1.01032	10.1478	-1
276	97.5374	Inf	0.00275782	25.1958	25.3029	25.0886	32.8817	0.511662	1.0136	10.1476	-1
276.6	97.683	Inf	0.00276386	25.1997	25.3037	25.0957	32.8802	0.512974	1.1288	10.1475	-1
277.2	97.6772	Inf	0.00276984	25.2113	25.3215	25.101	32.882	0.511873	1.09932	10.1476	-1
277.8	97.9071	Inf	0.00277581	25.1975	25.2916	25.1035	32.8811	0.51225	1.03387	10.1478	-1
278.4	97.9532	Inf	0.00278183	25.2105	25.3181	25.1029	32.8795	0.512064	1.07213	10.1474	-1
279	98.0496	Inf	0.00278784	25.2088	25.3081	25.1096	32.8811	0.513238	1.12924	10.1479	-1
279.6	98.1062	Inf	0.00279384	25.1971	25.3088	25.0855	32.8822	0.513719	1.0691	10.1475	-1
280.2	98.165	Inf	0.00279984	25.1981	25.3072	25.0891	32.8807	0.512413	0.978088	10.1475	-1
280.8	98.2482	Inf	0.00280583	25.1959	25.298	25.0939	32.881	0.512561	1.00265	10.1478	-1
281.4	98.3284	Inf	0.00281182	25.2078	25.3046	25.1111	32.8803	0.512727	1.07407	10.1475	-1
282	98.4763	Inf	0.00281786	25.1973	25.2871	25.1075	32.8798	0.512144	1.01692	10.1478	-1
282.6	98.4919	Inf	0.00282384	25.2045	25.3029	25.1061	32.88	0.512558	0.953809	10.1479	-1
283.2	98.5628	Inf	0.00282982	25.1995	25.3006	25.0984	32.8805	0.512454	0.966353	10.1474	-1
283.8	98.7401	Inf	0.00283584	25.1988	25.3118	25.0857	32.8824	0.512915	1.02141	10.1477	-1
284.4	98.8133	Inf	0.00284184	25.2007	25.305	25.0963	32.8806	0.512559	1.00142	10.1476	-1
285	98.95	Inf	0.00284782	25.2001	25.2963	25.104	32.8812	0.512548	1.00994	10.1475	-1
285.6	98.9501	Inf	0.00285381	25.2107	25.3287	25.0926	32.8806	0.512235	1.01234	10.1475	-1
286.2	98.9787	Inf	0.00285982	25.2101	25.3128	25.1074	32.8806	0.51242	1.04011	10.1479	-1
286.8	99.0919	Inf	0.00286583	25.1998	25.3068	25.0928	32.8812	0.512498	1.02434	10.1476	-1
287.4	99.0861	Inf	0.0028718	25.2009	25.299	25.1028	32.8819	0.512948	0.962231	10.1478	-1
288	99.2681	Inf	0.00287781	25.2021	25.3077	25.0965	32.8815	0.512647	1.04422	10.1479	-1
288.6	99.3725	Inf	0.00288382	25.2001	25.3025	25.0976	32.8824	0.51302	1.091	10.1478	-1
289.2	99.4673	Inf	0.00288981	25.2122	25.3077	25.1166	32.8815	0.513515	1.07329	10.1478	-1
289.8	99.4352	Inf	0.00289579	25.2076	25.3071	25.108	32.8819	0.513908	0.992199	10.1479	-1
290.4	99.4103	Inf	0.0029018	25.2058	25.31	25.1016	32.8803	0.512867	1.00922	10.1477	-1
291	99.464	Inf	0.00290785	25.2022	25.2945	25.11	32.8809	0.511729	1.01062	10.1479	-1
291.6	99.5228	Inf	0.0029138	25.2192	25.3263	25.1121	32.883	0.513235	0.962225	10.1474	-1
292.2	99.7756	Inf	0.00291979	25.1998	25.2982	25.1014	32.8808	0.512689	0.908196	10.1477	-1
292.8	99.8371	Inf	0.0029258	25.2026	25.2984	25.1068	32.8809	0.512595	0.912819	10.1475	-1
293.4	99.7919	Inf	0.00293182	25.2105	25.3108	25.1103	32.8815	0.512382	1.02207	10.1477	-1
294	99.755	Inf	0.00293779	25.1991	25.3045	25.0937	32.8823	0.51238	0.962384	10.1476	-1
294.6	99.8352	Inf	0.0029438	25.2082	25.3096	25.1068	32.881	0.512442	0.951853	10.1473	-1
295.2	99.8043	Inf	0.00294981	25.2043	25.3124	25.0963	32.8806	0.512883	0.998245	10.1474	-1
295.8	99.9866	Inf	0.00295581	25.199	25.3075	25.0906	32.8808	0.513091	0.989039	10.1475	-1
296.4	100.06	Inf	0.00296185	25.1974	25.2986	25.0962	32.8814	0.51322	0.965888	10.1475	-1
297	100.074	Inf	0.0029679	25.2262	25.3319	25.1205	32.8809	0.51303	0.908765	10.1473	-1
297.6	100.127	Inf	0.00297386	25.2049	25.3091	25.1008	32.882	0.513557	0.942296	10.1476	-1
298.2	100.147	Inf	0.00297987	25.2205	25.3259	25.115	32.8807	0.512396	0.993568	10.1474	-1
298.8	100.379	Inf	0.0029859	25.1913	25.2953	25.0873	32.8817	0.512719	0.920299	10.1474	-1
299.4	100.277	Inf	0.00299186	25.1991	25.3026	25.0957	32.8795	0.512537	0.874599	10.1473	-1
300	100.287	Inf	0.00299783	25.2116	25.3262	25.0969	32.8806	0.512372	0.939957	10.1476	-1
300.6	100.216	Inf	0.00300388	25.203	25.3122	25.0938	32.882	0.512704	0.972205	10.1476	-1
301.2	100.426	Inf	0.00300988	25.2108	25.3117	25.1099	32.8818	0.513296	0.912401	10.1474	-1
301.8	100.452	Inf	0.00301584	25.2077	25.3067	25.1087	32.8812	0.513212	0.883534	10.1474	-1
302.4	100.553	Inf	0.00302183	25.2064	25.2924	25.1204	32.881	0.512383	0.935357	10.1475	-1
303	100.515	Inf	0.00302784	25.2068	25.3165	25.0971	32.8822	0.512986	0.980458	10.1478	-1
303.6	100.766	Inf	0.00303388	25.2092	25.3168	25.1015	32.8809	0.513121	0.950526	10.1476	-1
304.2	100.687	Inf	0.00303983	25.2061	25.3239	25.0882	32.8809	0.512369	0.929297	10.1476	-1
304.8	100.711	Inf	0.00304581	25.215	25.3041	25.1258	32.8815	0.513674	1.01179	10.1476	-1
305.4	100.856	Inf	0.00305187	25.2006	25.2968	25.1043	32.8819	0.512652	1.00419	10.1477	-1
306	101.045	Inf	0.00305784	25.2002	25.3028	25.0976	32.8798	0.513633	0.950056	10.1481	-1
306.6	101.059	Inf	0.00306383	25.21	25.3139	25.1061	32.8808	0.512925	0.925428	10.1479	-1
306.8	101.19	Inf	0.00306583	25.2111	25.3161	25.1061	32.88	0.512574	0.945905	10.1478	-1