File: data/ReportRaw/Resin_TXT/Unknown_Resin/Tensile_Test_01.txt
Program Started: Tue, Jul 16, 2024	1:13:32 PM	System: µTS4
Test Notes:

User displacement limits active. Low limit -20.000E-3 m, high limit 20.000E-3 m.
User load limits active. Low limit -1.600E+3 N, high limit 1.600E+3 N.

No closed loop control sensors in this test.

Test Segments:
 1. Ramp in Drive Control, +5.00E-3m Amplitude, 10.00E-6 m/s Speed. Sampling at 20.000 Hz, Lowpass Filter Cutoff of 100.000 Hz

Specimen Thickness (m): 	1.550E-3
Specimen Width (m): 	1.910E-3
Specimen Diameter (m): 	0.000E+0
Specimen Area (m^2): 	2.960E-6
Specimen Length (m): 	5.000E-3

Test Started: Tue, Jul 16, 2024	1:49:57 PM
Time (s)	LCFS1600 (N)	LCW1600 (N)	ECATENC (m)	SpecTemp (C)	AirTemp (C)	OutletTemp (C)	JTemp1600 (C)	GTemp1600 (C)	CUR (A)	Ve (V)	Trigger (#)
0.0000000000E+0	-0.320076	-0.179248	4.03323e-17	24.5234	24.5161	24.5307	32.8129	0.506562	0.0148763	10.1463	-1
0.3	0.216456	0.300692	2.70043e-06	24.5227	24.5193	24.526	32.8124	0.50709	0.0957854	10.1464	-1
0.6	0.597843	0.67585	5.7189e-06	24.5113	24.5087	24.5138	32.8126	0.506346	0.0725365	10.146	-1
0.9	0.770905	0.904766	8.6742e-06	24.5066	24.5021	24.511	32.8119	0.50702	0.0705761	10.1461	-1
1.2	0.944041	1.10254	1.16991e-05	24.5332	24.5225	24.5438	32.8123	0.506203	0.103299	10.146	-1
1.5	1.1826	1.25784	1.46982e-05	24.5262	24.5319	24.5206	32.8134	0.505535	0.155822	10.1461	-1
1.8	1.22245	1.40157	1.77031e-05	24.5233	24.5232	24.5234	32.813	0.506929	0.182997	10.1462	-1
2.1	1.45921	1.59134	2.07002e-05	24.5202	24.5198	24.5206	32.8114	0.506021	0.170739	10.1459	-1
2.4	1.63211	1.7462	2.37224e-05	24.5148	24.5196	24.5101	32.8112	0.507639	0.18035	10.1459	-1
2.7	1.78512	1.90773	2.66969e-05	24.5229	24.5248	24.5211	32.8131	0.507096	0.167421	10.1459	-1
3	2.01797	2.0939	2.96926e-05	24.5084	24.5051	24.5117	32.8127	0.506541	0.142306	10.1461	-1
3.3	2.22504	2.2512	3.2694e-05	24.5245	24.5332	24.5158	32.8132	0.507225	0.154877	10.1464	-1
3.6	2.31791	2.41587	3.56923e-05	24.5326	24.5275	24.5376	32.8142	0.507239	0.179003	10.1462	-1
3.9	2.49508	2.59771	3.86941e-05	24.5299	24.5463	24.5135	32.8123	0.505747	0.214801	10.1459	-1
4.2	2.71467	2.77317	4.16997e-05	24.5235	24.5179	24.5291	32.8118	0.507654	0.225483	10.1463	-1
4.5	2.83781	2.93758	4.46872e-05	24.5236	24.5317	24.5154	32.8115	0.50682	0.227956	10.1462	-1
4.8	3.09773	3.13953	4.77021e-05	24.5129	24.5139	24.5118	32.8138	0.506836	0.190324	10.1463	-1
5.1	3.31811	3.31682	5.07118e-05	24.5027	24.5064	24.4989	32.8125	0.506089	0.142025	10.1465	-1
5.4	3.29772	3.46702	5.36952e-05	24.5184	24.5217	24.5151	32.8132	0.506162	0.13262	10.1466	-1
5.7	3.62951	3.67728	5.66681e-05	24.5352	24.5418	24.5286	32.8121	0.507065	0.120206	10.1462	-1
6	3.72945	3.86783	5.96643e-05	24.5266	24.5316	24.5216	32.8126	0.506969	0.162995	10.147	-1
6.3	3.92968	4.06216	6.26938e-05	24.5277	24.5268	24.5286	32.813	0.505537	0.196914	10.1467	-1
6.6	4.14307	4.25033	6.56899e-05	24.528	24.5215	24.5345	32.8123	0.506407	0.205941	10.1462	-1
6.9	4.33648	4.45158	6.86966e-05	24.5299	24.5308	24.5289	32.8127	0.507479	0.197927	10.1464	-1
7.2	4.57928	4.64743	7.16949e-05	24.5146	24.5132	24.516	32.8126	0.506823	0.178228	10.1467	-1
7.5	4.71928	4.83645	7.47022e-05	24.522	24.5264	24.5177	32.8124	0.506781	0.13009	10.1466	-1
7.8	5.13809	5.04533	7.76621e-05	24.5335	24.5382	24.5289	32.8123	0.507133	0.108501	10.1467	-1
8.1	5.11088	5.2261	8.06885e-05	24.5283	24.5387	24.5179	32.814	0.50667	0.13526	10.1469	-1
8.4	5.3048	5.41114	8.3661e-05	24.5071	24.5158	24.4984	32.8134	0.506892	0.151673	10.1463	-1
8.7	5.58436	5.62697	8.66877e-05	24.531	24.532	24.53	32.8124	0.506188	0.172464	10.1467	-1
9	5.72763	5.81212	8.96826e-05	24.5314	24.5318	24.5311	32.8158	0.506718	0.163885	10.1464	-1
9.3	5.91889	6.0182	9.26938e-05	24.5239	24.5194	24.5284	32.8144	0.505536	0.163486	10.1466	-1
9.6	6.14413	6.25315	9.5691e-05	24.5203	24.525	24.5157	32.8136	0.506774	0.123923	10.1465	-1
9.9	6.36868	6.44056	9.8709e-05	24.524	24.5326	24.5154	32.813	0.506074	0.105057	10.1467	-1
10.2	6.46117	6.63852	0.000101685	24.5116	24.5205	24.5027	32.8119	0.50594	0.109324	10.1461	-1
10.5	6.76237	6.85286	0.000104681	24.5269	24.5247	24.529	32.8137	0.507826	0.128097	10.1468	-1
10.8	6.97875	7.03978	0.000107668	24.5142	24.5087	24.5197	32.8118	0.506585	0.148415	10.1468	-1
11.1	7.12148	7.23856	0.000110675	24.5176	24.5302	24.5049	32.8123	0.506265	0.188161	10.1467	-1
11.4	7.54822	7.48513	0.000113664	24.5259	24.5286	24.5233	32.8123	0.50591	0.222993	10.1468	-1
11.7	7.60727	7.6709	0.000116678	24.5131	24.5112	24.5151	32.8149	0.506574	0.218874	10.1464	-1
12	7.84177	7.85766	0.000119701	24.5172	24.5253	24.5092	32.8126	0.505302	0.177456	10.1467	-1
12.3	8.0278	8.09433	0.000122682	24.532	24.5236	24.5404	32.8151	0.505822	0.157411	10.1462	-1
12.6	8.16036	8.28374	0.000125671	24.535	24.5282	24.5418	32.8125	0.505887	0.162431	10.1462	-1
12.9	8.43806	8.491	0.00012868	24.506	24.5036	24.5084	32.8119	0.505993	0.181706	10.1465	-1
13.2	8.51082	8.69078	0.00013167	24.515	24.5196	24.5105	32.8123	0.505977	0.210169	10.1467	-1
13.5	8.70986	8.87618	0.000134664	24.5391	24.5433	24.5349	32.8142	0.506164	0.250735	10.1466	-1
13.8	8.85166	9.05404	0.000137665	24.5126	24.5	24.5252	32.8131	0.506332	0.256864	10.1465	-1
14.1	9.13669	9.27203	0.000140676	24.5237	24.5215	24.5259	32.8126	0.506808	0.238802	10.1468	-1
14.4	9.35411	9.49587	0.000143722	24.5119	24.5154	24.5083	32.8151	0.50674	0.215002	10.1466	-1
14.7	9.62804	9.7017	0.000146682	24.5298	24.5382	24.5214	32.8145	0.50578	0.176024	10.1465	-1
15	9.89843	9.93454	0.000149665	24.5065	24.5153	24.4977	32.8144	0.506708	0.169834	10.1461	-1
15.3	10.0752	10.1235	0.000152664	24.5162	24.5071	24.5254	32.814	0.507885	0.16706	10.1465	-1
15.6	10.0972	10.3074	0.000155716	24.5279	24.5388	24.5171	32.8147	0.506474	0.192791	10.1469	-1
15.9	10.3006	10.52	0.000158658	24.5151	24.5246	24.5055	32.8129	0.505685	0.217198	10.1467	-1
16.2	10.7424	10.7275	0.000161711	24.4962	24.4875	24.5049	32.8158	0.506187	0.237091	10.1467	-1
16.5	10.8032	10.9283	0.000164667	24.5266	24.518	24.5351	32.8128	0.505284	0.210296	10.1467	-1
16.8	11.1059	11.1517	0.000167698	24.5088	24.5163	24.5013	32.8124	0.507798	0.15418	10.1467	-1
17.1	11.3401	11.3866	0.000170698	24.5178	24.5142	24.5213	32.8143	0.506535	0.135465	10.1468	-1
17.4	11.5368	11.6041	0.000173707	24.5101	24.5078	24.5123	32.8141	0.505978	0.125968	10.1467	-1
17.7	11.776	11.8442	0.000176689	24.522	24.5268	24.5173	32.8158	0.506963	0.139436	10.1466	-1
18	11.9271	12.0763	0.000179724	24.509	24.5123	24.5056	32.8139	0.506175	0.189904	10.1464	-1
18.3	12.2004	12.302	0.000182659	24.509	24.5043	24.5137	32.8144	0.506601	0.225038	10.1467	-1
18.6	12.5054	12.5523	0.000185724	24.517	24.5107	24.5232	32.8148	0.505903	0.228651	10.1467	-1
18.9	12.6104	12.8167	0.000188669	24.518	24.5227	24.5133	32.8133	0.505933	0.203401	10.1469	-1
19.2	12.8737	13.047	0.000191732	24.5123	24.5147	24.5098	32.8134	0.505485	0.176297	10.1467	-1
19.5	13.2699	13.2855	0.000194707	24.5223	24.5075	24.5371	32.8154	0.506065	0.170469	10.1466	-1
19.8	13.4233	13.5425	0.00019771	24.5138	24.522	24.5056	32.8142	0.505773	0.191666	10.1465	-1
20.1	13.678	13.8034	0.000200669	24.5157	24.5208	24.5105	32.8131	0.505598	0.219433	10.1467	-1
20.4	13.9267	14.0479	0.000203716	24.5148	24.5205	24.5091	32.8149	0.506479	0.265345	10.1467	-1
20.7	14.2023	14.3336	0.000206694	24.528	24.5256	24.5305	32.8131	0.506256	0.277499	10.1469	-1
21	14.4284	14.5951	0.000209721	24.5156	24.5126	24.5186	32.8149	0.507149	0.292565	10.1464	-1
21.3	14.7579	14.8898	0.000212674	24.5432	24.5338	24.5526	32.8161	0.505155	0.300034	10.1467	-1
21.6	15.2285	15.2071	0.00021572	24.5146	24.503	24.5263	32.8147	0.506247	0.27837	10.1467	-1
21.9	15.3729	15.5037	0.000218693	24.5322	24.5287	24.5357	32.8134	0.506773	0.185356	10.147	-1
22.2	15.6301	15.7634	0.000221698	24.5283	24.5232	24.5335	32.815	0.505971	0.213891	10.147	-1
22.5	15.904	16.0596	0.00022473	24.5164	24.522	24.5108	32.8122	0.505776	0.222395	10.1467	-1
22.8	16.1778	16.3389	0.000227707	24.5158	24.5119	24.5196	32.8154	0.505511	0.24616	10.1474	-1
23.1	16.5029	16.6326	0.000230707	24.5155	24.5115	24.5194	32.8139	0.505693	0.299299	10.147	-1
23.4	16.843	16.9528	0.000233687	24.5338	24.5307	24.5369	32.8144	0.505861	0.243524	10.1473	-1
23.7	17.2241	17.2435	0.00023671	24.5215	24.5178	24.5251	32.8137	0.505553	0.256214	10.1467	-1
24	17.3122	17.5318	0.000239714	24.5164	24.5138	24.519	32.8129	0.506202	0.225158	10.1474	-1
24.3	17.7191	17.8353	0.000242726	24.5246	24.5278	24.5213	32.8148	0.507078	0.201696	10.1468	-1
24.6	18.0267	18.1157	0.000245701	24.5134	24.5082	24.5187	32.8113	0.504919	0.219139	10.1473	-1
24.9	18.2793	18.4157	0.000248693	24.5232	24.5206	24.5258	32.8137	0.505972	0.228714	10.1473	-1
25.2	18.5756	18.7561	0.000251695	24.5271	24.5203	24.534	32.8125	0.505707	0.255107	10.1471	-1
25.5	18.9768	19.0856	0.000254726	24.5258	24.5234	24.5281	32.8135	0.505615	0.287415	10.1467	-1
25.8	19.1936	19.3955	0.000257699	24.5173	24.5105	24.5241	32.8131	0.505057	0.293979	10.1473	-1
26.1	19.5993	19.7162	0.000260728	24.5255	24.5222	24.5287	32.8127	0.50593	0.269075	10.1472	-1
26.4	19.9265	20.0639	0.000263702	24.5309	24.5311	24.5307	32.8146	0.505586	0.247873	10.1471	-1
26.7	20.2956	20.3802	0.000266689	24.5044	24.5005	24.5083	32.816	0.50562	0.225337	10.1472	-1
27	20.7409	20.7055	0.0002697	24.5124	24.5214	24.5034	32.8151	0.505071	0.224721	10.1476	-1
27.3	20.9813	21.0639	0.000272694	24.527	24.5236	24.5303	32.8116	0.504421	0.242536	10.1474	-1
27.6	21.2243	21.3984	0.000275688	24.5228	24.5142	24.5314	32.8129	0.505055	0.275605	10.1472	-1
27.9	21.5208	21.7192	0.0002787	24.5232	24.5257	24.5207	32.813	0.50675	0.289847	10.1474	-1
28.2	21.9966	22.0961	0.000281676	24.5142	24.5211	24.5073	32.8151	0.505333	0.258969	10.1476	-1
28.5	22.3808	22.4585	0.000284712	24.5218	24.5177	24.5259	32.8134	0.505695	0.256793	10.1475	-1
28.8	22.713	22.8376	0.000287704	24.5181	24.517	24.5193	32.8138	0.506464	0.221096	10.1474	-1
29.1	23.1996	23.2429	0.000290716	24.5178	24.5191	24.5166	32.8149	0.505334	0.224137	10.1476	-1
29.4	23.4618	23.5845	0.000293686	24.508	24.5038	24.5121	32.8151	0.506603	0.239077	10.1475	-1
29.7	23.8275	23.906	0.00029668	24.5232	24.515	24.5313	32.8136	0.505828	0.262761	10.1476	-1
30	24.2755	24.2452	0.000299678	24.524	24.5263	24.5217	32.8128	0.505616	0.326655	10.1475	-1
30.3	24.3782	24.4775	0.00030269	24.5318	24.5334	24.5302	32.8129	0.505191	0.378385	10.1472	-1
30.6	24.6704	24.7111	0.000305695	24.5177	24.5219	24.5135	32.8136	0.506405	0.354695	10.1472	-1
30.9	24.9055	25.0381	0.000308703	24.5338	24.5351	24.5324	32.8142	0.506291	0.346713	10.1473	-1
31.2	25.2162	25.316	0.000311705	24.5065	24.5125	24.5006	32.8129	0.506542	0.287873	10.1472	-1
31.5	25.4881	25.6442	0.000314689	24.5172	24.5033	24.5312	32.8127	0.505435	0.240361	10.1475	-1
31.8	25.9492	26.0172	0.000317683	24.5223	24.5276	24.517	32.8148	0.505373	0.256061	10.1474	-1
32.1	26.282	26.3844	0.000320681	24.5175	24.5093	24.5257	32.8139	0.505701	0.261379	10.1472	-1
32.4	26.6361	26.7174	0.00032369	24.5147	24.5111	24.5183	32.8137	0.505344	0.276008	10.1475	-1
32.7	26.9545	27.0966	0.000326701	24.5176	24.5213	24.5138	32.8135	0.505535	0.262959	10.1477	-1
33	27.3108	27.4401	0.0003297	24.5119	24.5146	24.5093	32.8149	0.505666	0.257271	10.1477	-1
33.3	27.7433	27.8192	0.000332709	24.5063	24.503	24.5097	32.8132	0.5058	0.219633	10.1476	-1
33.6	28.0895	28.2131	0.000335693	24.4998	24.5129	24.4867	32.8148	0.505187	0.18101	10.1476	-1
33.9	28.4628	28.5811	0.000338689	24.5268	24.5269	24.5267	32.8143	0.506109	0.187025	10.1477	-1
34.2	28.8184	28.9428	0.000341675	24.5231	24.5205	24.5257	32.8138	0.505402	0.186963	10.1477	-1
34.5	29.166	29.2794	0.000344667	24.5186	24.5302	24.507	32.814	0.505798	0.198835	10.1475	-1
34.8	29.5431	29.6463	0.000347674	24.5165	24.5099	24.5231	32.8147	0.505521	0.251765	10.148	-1
35.1	29.8726	30.0145	0.000350687	24.5189	24.5161	24.5216	32.8149	0.504955	0.322846	10.1475	-1
35.4	30.2468	Inf	0.000353684	24.5049	24.502	24.5079	32.8129	0.505442	0.315467	10.1478	-1
35.7	30.6706	Inf	0.000356656	24.5107	24.5068	24.5146	32.8122	0.505669	0.332351	10.1479	-1
36	30.9203	Inf	0.000359679	24.5245	24.5213	24.5278	32.8139	0.506181	0.295617	10.1479	-1
36.3	31.2701	Inf	0.000362673	24.518	24.5136	24.5224	32.813	0.505206	0.261245	10.1478	-1
36.6	31.5579	Inf	0.000365678	24.5146	24.5068	24.5225	32.8135	0.506258	0.278327	10.1478	-1
36.9	31.7894	Inf	0.000368687	24.5206	24.518	24.5231	32.8142	0.504795	0.302144	10.1481	-1
37.2	32.0517	Inf	0.000371677	24.5274	24.5263	24.5285	32.813	0.505476	0.316433	10.148	-1
37.5	32.4454	Inf	0.000374687	24.4975	24.4986	24.4964	32.8138	0.505004	0.351831	10.1478	-1
37.8	32.7515	Inf	0.000377687	24.5141	24.5106	24.5175	32.8153	0.504936	0.343358	10.1481	-1
38.1	33.042	Inf	0.000380666	24.5177	24.5077	24.5277	32.8138	0.505804	0.290955	10.1476	-1
38.4	33.3849	Inf	0.000383687	24.524	24.5359	24.5121	32.8157	0.504563	0.254803	10.1476	-1
38.7	33.7286	Inf	0.00038668	24.5108	24.5119	24.5097	32.8141	0.505988	0.236316	10.148	-1
39	34.0404	Inf	0.000389671	24.5152	24.5103	24.5201	32.8135	0.505134	0.229727	10.1476	-1
39.3	34.4815	Inf	0.00039267	24.5182	24.5218	24.5146	32.8152	0.50523	0.266289	10.1479	-1
39.6	34.7948	Inf	0.00039567	24.5102	24.5136	24.5069	32.8134	0.50445	0.285886	10.1479	-1
39.9	35.1694	Inf	0.000398665	24.5096	24.5152	24.504	32.8135	0.504891	0.314174	10.1477	-1
40.2	35.4935	Inf	0.000401662	24.5185	24.5167	24.5203	32.8136	0.505178	0.348764	10.1478	-1
40.5	35.8422	Inf	0.000404695	24.5093	24.5239	24.4947	32.8157	0.50572	0.318738	10.148	-1
40.8	36.2093	Inf	0.000407674	24.5181	24.5177	24.5185	32.8133	0.505299	0.326649	10.1477	-1
41.1	36.586	Inf	0.000410658	24.5171	24.5026	24.5315	32.8139	0.505899	0.294797	10.1483	-1
41.4	36.8443	Inf	0.000413671	24.5135	24.5137	24.5134	32.8146	0.505998	0.289978	10.148	-1
41.7	37.1907	Inf	0.000416665	24.5214	24.5187	24.524	32.8141	0.504548	0.309271	10.1476	-1
42	37.5001	Inf	0.000419663	24.5079	24.5012	24.5147	32.8139	0.505594	0.337447	10.1476	-1
42.3	37.8937	Inf	0.000422669	24.5113	24.5057	24.517	32.8152	0.505059	0.368003	10.148	-1
42.6	38.1116	Inf	0.000425668	24.5129	24.5128	24.5129	32.815	0.505357	0.29632	10.1478	-1
42.9	38.5297	Inf	0.000428671	24.5193	24.5243	24.5143	32.815	0.50605	0.260542	10.1478	-1
43.2	38.7494	Inf	0.000431688	24.5237	24.5099	24.5375	32.8148	0.505432	0.25736	10.1477	-1
43.5	39.1272	Inf	0.000434684	24.523	24.5214	24.5246	32.8132	0.503989	0.251955	10.1485	-1
43.8	39.4517	Inf	0.000437657	24.5274	24.514	24.5408	32.8147	0.504731	0.269043	10.1479	-1
44.1	39.7426	Inf	0.00044065	24.5263	24.5288	24.5238	32.8143	0.505427	0.316226	10.1481	-1
44.4	40.02	Inf	0.000443657	24.5155	24.5025	24.5285	32.8152	0.504128	0.360033	10.148	-1
44.7	40.3439	Inf	0.000446683	24.5154	24.5202	24.5105	32.8144	0.505457	0.372019	10.1481	-1
45	40.736	Inf	0.000449663	24.507	24.4996	24.5144	32.8146	0.505122	0.345021	10.1482	-1
45.3	41.0346	Inf	0.000452647	24.5231	24.5164	24.5298	32.8148	0.505348	0.379761	10.1476	-1
45.6	41.4449	Inf	0.000455659	24.517	24.5244	24.5096	32.8144	0.505767	0.335562	10.1479	-1
45.9	41.7584	Inf	0.000458652	24.5251	24.5252	24.525	32.8151	0.505004	0.33236	10.1481	-1
46.2	41.88	Inf	0.000461649	24.5146	24.5075	24.5218	32.8145	0.505654	0.343894	10.1486	-1
46.5	42.3724	Inf	0.000464646	24.5254	24.535	24.5158	32.8141	0.506398	0.384372	10.148	-1
46.8	42.6727	Inf	0.000467645	24.5242	24.5421	24.5063	32.8146	0.505093	0.395851	10.1478	-1
47.1	42.8347	Inf	0.000470675	24.529	24.5293	24.5287	32.8163	0.505516	0.413687	10.1485	-1
47.4	43.1484	Inf	0.000473671	24.5055	24.5188	24.4922	32.8143	0.50454	0.387787	10.1481	-1
47.7	43.5033	Inf	0.000476656	24.5142	24.5124	24.516	32.816	0.505371	0.353615	10.148	-1
48	43.5788	Inf	0.00047967	24.5142	24.5123	24.516	32.8156	0.505558	0.30995	10.1482	-1
48.3	43.8018	Inf	0.000482661	24.508	24.5176	24.4985	32.8156	0.504671	0.290006	10.1478	-1
48.6	43.9579	Inf	0.000485651	24.4995	24.4928	24.5061	32.8164	0.504965	0.319017	10.1476	-1
48.9	44.3415	Inf	0.000488656	24.516	24.5176	24.5144	32.8139	0.504904	0.338671	10.1481	-1
49.2	44.5714	Inf	0.00049164	24.5066	24.5087	24.5045	32.8148	0.50477	0.355316	10.148	-1
49.5	44.7393	Inf	0.000494644	24.5177	24.5116	24.5239	32.815	0.505024	0.363302	10.1483	-1
49.8	44.9188	Inf	0.000497662	24.5057	24.5055	24.5059	32.8141	0.504359	0.369546	10.1481	-1
50.1	45.1388	Inf	0.000500668	24.5182	24.5078	24.5287	32.8155	0.505091	0.323986	10.148	-1
50.4	45.6538	Inf	0.000503662	24.5044	24.5081	24.5008	32.8145	0.504793	0.337502	10.1482	-1
50.7	45.8115	Inf	0.000506645	24.5047	24.5114	24.4981	32.8161	0.505537	0.29124	10.1478	-1
51	46.2289	Inf	0.000509596	24.5132	24.5182	24.5081	32.8157	0.504877	0.355849	10.1479	-1
51.3	46.5533	Inf	0.000512641	24.5256	24.5247	24.5265	32.8154	0.505819	0.368516	10.1481	-1
51.6	46.8159	Inf	0.000515643	24.5075	24.5015	24.5136	32.8129	0.504842	0.382063	10.148	-1
51.9	47.3343	Inf	0.000518654	24.5261	24.5118	24.5403	32.8156	0.504408	0.39922	10.1485	-1
52.2	47.5153	Inf	0.000521669	24.5339	24.5208	24.5469	32.8151	0.504866	0.342472	10.1482	-1
52.5	47.834	Inf	0.000524667	24.5144	24.5126	24.5162	32.814	0.505429	0.356246	10.1484	-1
52.8	48.2712	Inf	0.000527654	24.502	24.499	24.505	32.8142	0.504912	0.322963	10.148	-1
53.1	48.5654	Inf	0.000530654	24.5144	24.5018	24.5271	32.8156	0.504556	0.331713	10.1482	-1
53.4	48.6485	Inf	0.000533658	24.5097	24.5154	24.5039	32.8156	0.505051	0.356111	10.148	-1
53.7	48.9056	Inf	0.000536648	24.5175	24.5136	24.5215	32.8155	0.503688	0.397347	10.1482	-1
54	49.4043	Inf	0.000539618	24.5215	24.5266	24.5164	32.816	0.505714	0.462928	10.1482	-1
54.3	49.6473	Inf	0.000542624	24.5343	24.5384	24.5303	32.814	0.50555	0.514156	10.1478	-1
54.6	49.8506	Inf	0.000545644	24.5188	24.5186	24.5191	32.8163	0.505089	0.473486	10.1481	-1
54.9	50.1102	Inf	0.000548645	24.505	24.5099	24.5	32.8151	0.504755	0.483108	10.1481	-1
55.2	50.405	Inf	0.000551657	24.5232	24.5182	24.5283	32.8148	0.504315	0.430304	10.1484	-1
55.5	50.7172	Inf	0.000554639	24.524	24.5266	24.5213	32.8143	0.504444	0.415306	10.1482	-1
55.8	51.1096	Inf	0.000557627	24.5075	24.5158	24.4993	32.8164	0.504482	0.433598	10.1482	-1
56.1	51.4002	Inf	0.000560623	24.5125	24.5235	24.5016	32.816	0.504573	0.473959	10.1481	-1
56.4	51.6866	Inf	0.000563651	24.5159	24.5126	24.5192	32.8153	0.504786	0.494222	10.1482	-1
56.7	52.0997	Inf	0.000566643	24.5158	24.5154	24.5163	32.8167	0.505335	0.481012	10.1482	-1
57	52.2796	Inf	0.000569667	24.511	24.5131	24.5089	32.8145	0.505679	0.429485	10.1482	-1
57.3	52.6642	Inf	0.000572631	24.5047	24.4976	24.5117	32.8158	0.505033	0.426818	10.1484	-1
57.6	52.8874	Inf	0.000575646	24.5241	24.523	24.5251	32.8145	0.504721	0.347767	10.1481	-1
57.9	53.1481	Inf	0.000578657	24.5311	24.5246	24.5376	32.8145	0.504822	0.32546	10.1479	-1
58.2	53.3726	Inf	0.000581628	24.4996	24.4925	24.5066	32.8152	0.505109	0.366047	10.1482	-1
58.5	53.808	Inf	0.0005846	24.5105	24.5158	24.5051	32.8148	0.505723	0.394859	10.1481	-1
58.8	53.969	Inf	0.000587645	24.5175	24.5241	24.5109	32.8153	0.504296	0.393859	10.1482	-1
59.1	54.1472	Inf	0.000590632	24.5134	24.5212	24.5056	32.8165	0.50477	0.381568	10.1483	-1
59.4	54.5375	Inf	0.000593653	24.5233	24.5091	24.5375	32.8147	0.50576	0.380715	10.1479	-1
59.7	54.8963	Inf	0.000596637	24.5227	24.513	24.5323	32.8153	0.504559	0.341643	10.1482	-1
60	55.0773	Inf	0.000599646	24.5315	24.5283	24.5347	32.8158	0.504181	0.339492	10.1481	-1
60.3	55.4414	Inf	0.000602626	24.5145	24.5155	24.5135	32.8145	0.504981	0.305911	10.1482	-1
60.6	55.8892	Inf	0.000605635	24.5222	24.515	24.5294	32.8151	0.505242	0.359181	10.1481	-1
60.9	56.2738	Inf	0.0006086	24.5162	24.5137	24.5186	32.8153	0.504813	0.397566	10.148	-1
61.2	56.6245	Inf	0.00061162	24.5125	24.5091	24.5158	32.8163	0.504468	0.393674	10.1478	-1
61.5	57.0708	Inf	0.000614616	24.5116	24.5119	24.5112	32.8163	0.504973	0.372297	10.1481	-1
61.8	57.3096	Inf	0.000617613	24.5191	24.5198	24.5183	32.8161	0.504715	0.375181	10.1482	-1
62.1	57.7433	Inf	0.000620636	24.5239	24.5281	24.5196	32.816	0.505456	0.367467	10.1482	-1
62.4	58.1411	Inf	0.000623642	24.5202	24.5146	24.5258	32.8153	0.504625	0.319831	10.1481	-1
62.7	58.4992	Inf	0.000626629	24.5163	24.5114	24.5212	32.816	0.504915	0.350008	10.1484	-1
63	58.7112	Inf	0.000629616	24.5193	24.5202	24.5183	32.8156	0.504765	0.383593	10.1481	-1
63.3	59.18	Inf	0.000632599	24.5174	24.5153	24.5194	32.8162	0.504362	0.39363	10.1481	-1
63.6	59.4521	Inf	0.000635614	24.5196	24.5241	24.5151	32.8158	0.503747	0.457561	10.1482	-1
63.9	59.9715	Inf	0.000638629	24.5047	24.499	24.5103	32.8152	0.503996	0.465813	10.1482	-1
64.2	60.3405	Inf	0.000641628	24.5143	24.5254	24.5032	32.8158	0.504076	0.463455	10.1479	-1
64.5	60.6032	Inf	0.000644614	24.5116	24.5153	24.5079	32.8162	0.504923	0.436019	10.1482	-1
64.8	60.8887	Inf	0.000647624	24.5192	24.5207	24.5178	32.816	0.505364	0.413709	10.1477	-1
65.1	61.299	Inf	0.000650596	24.5273	24.5338	24.5208	32.8146	0.505285	0.389597	10.1483	-1
65.4	61.6429	Inf	0.000653625	24.5106	24.5174	24.5038	32.8146	0.504474	0.415399	10.1481	-1
65.7	62.0416	Inf	0.000656609	24.5144	24.5238	24.5049	32.8173	0.50569	0.444883	10.1478	-1
66	62.3989	Inf	0.000659615	24.5281	24.5307	24.5255	32.817	0.504805	0.463247	10.1485	-1
66.3	62.6925	Inf	0.000662603	24.5191	24.5184	24.5198	32.816	0.505087	0.437652	10.1478	-1
66.6	63.0851	Inf	0.00066562	24.5183	24.5169	24.5197	32.8175	0.504737	0.409067	10.1477	-1
66.9	63.4806	Inf	0.0006686	24.498	24.5038	24.4922	32.8166	0.504451	0.387186	10.148	-1
67.2	64.0205	Inf	0.000671606	24.5259	24.5233	24.5285	32.8162	0.504812	0.327857	10.148	-1
67.5	64.4199	Inf	0.000674599	24.5073	24.4997	24.5148	32.8161	0.50487	0.373783	10.1481	-1
67.8	64.8323	Inf	0.00067759	24.5109	24.5096	24.5123	32.8179	0.503648	0.420361	10.1481	-1
68.1	65.2599	Inf	0.000680591	24.5164	24.5248	24.508	32.8189	0.505238	0.494478	10.148	-1
68.4	65.7626	Inf	0.00068359	24.5192	24.5253	24.5131	32.8151	0.504633	0.562529	10.148	-1
68.7	66.0935	Inf	0.00068661	24.5196	24.5242	24.515	32.8172	0.504662	0.568298	10.1477	-1
69	66.6415	Inf	0.000689631	24.5219	24.5253	24.5185	32.8161	0.504813	0.604775	10.1479	-1
69.3	66.9571	Inf	0.00069261	24.5073	24.5123	24.5023	32.8164	0.504585	0.580004	10.1487	-1
69.6	67.0484	Inf	0.000695616	24.5138	24.5168	24.5108	32.8153	0.504325	0.578909	10.1483	-1
69.9	67.6055	Inf	0.000698598	24.5073	24.5085	24.5061	32.8163	0.505161	0.585971	10.1476	-1
70.2	67.8819	Inf	0.000701614	24.5182	24.5131	24.5234	32.8172	0.50471	0.601376	10.1481	-1
70.5	68.2924	Inf	0.00070461	24.5215	24.5209	24.5221	32.8162	0.505238	0.62347	10.1479	-1
70.8	68.6225	Inf	0.000707613	24.5186	24.5144	24.5227	32.8167	0.505044	0.68253	10.1479	-1
71.1	69.1352	Inf	0.000710614	24.5117	24.5037	24.5196	32.8162	0.505644	0.6508	10.1479	-1
71.4	69.5502	Inf	0.000713614	24.5197	24.5123	24.5271	32.8158	0.504902	0.643934	10.1479	-1
71.7	69.873	Inf	0.000716593	24.5191	24.5138	24.5244	32.8162	0.50481	0.599596	10.148	-1
72	70.3011	Inf	0.000719622	24.5131	24.519	24.5073	32.8161	0.504409	0.56375	10.1478	-1
72.3	70.6861	Inf	0.000722604	24.4988	24.5143	24.4832	32.8164	0.504437	0.581729	10.1478	-1
72.6	71.1123	Inf	0.000725601	24.5267	24.5306	24.5229	32.8159	0.504948	0.599933	10.1481	-1
72.9	71.4505	Inf	0.000728575	24.5344	24.5395	24.5293	32.8173	0.504969	0.628967	10.148	-1
73.2	71.9009	Inf	0.000731589	24.5136	24.5131	24.5141	32.8162	0.504369	0.71306	10.148	-1
73.5	72.3144	Inf	0.000734595	24.5166	24.5268	24.5064	32.8155	0.504146	0.723699	10.1481	-1
73.8	72.7955	Inf	0.000737609	24.5164	24.529	24.5038	32.8169	0.505284	0.696699	10.1481	-1
74.1	73.1452	Inf	0.000740606	24.4957	24.5017	24.4898	32.8157	0.504452	0.674258	10.148	-1
74.4	73.5403	Inf	0.000743588	24.5221	24.5244	24.5197	32.817	0.504858	0.623534	10.1479	-1
74.7	73.9519	Inf	0.000746588	24.5231	24.5178	24.5284	32.8179	0.504172	0.611947	10.1483	-1
75	74.3099	Inf	0.000749608	24.5045	24.5097	24.4994	32.8179	0.504498	0.638009	10.1485	-1
75.3	74.6483	Inf	0.000752581	24.4991	24.5097	24.4885	32.8175	0.504159	0.700765	10.1479	-1
75.6	75.1392	Inf	0.000755613	24.519	24.5258	24.5122	32.8161	0.503934	0.666506	10.1482	-1
75.9	75.5048	Inf	0.000758587	24.5099	24.5136	24.5062	32.8165	0.504591	0.656418	10.1476	-1
76.2	75.731	Inf	0.000761551	24.5214	24.5313	24.5116	32.8166	0.504515	0.614705	10.148	-1
76.5	76.0997	Inf	0.000764603	24.5145	24.5162	24.5127	32.8161	0.503693	0.597459	10.1479	-1
76.8	76.5245	Inf	0.000767534	24.5062	24.5101	24.5023	32.8175	0.504637	0.603412	10.1479	-1
77.1	76.8912	Inf	0.000770585	24.5232	24.5228	24.5237	32.8159	0.503828	0.622446	10.1475	-1
77.4	77.1999	Inf	0.000773576	24.5134	24.5095	24.5173	32.8145	0.504864	0.65616	10.1481	-1
77.7	77.6326	Inf	0.000776564	24.5108	24.4942	24.5274	32.8186	0.504693	0.700065	10.1483	-1
78	77.8344	Inf	0.000779588	24.5084	24.5201	24.4967	32.8174	0.504321	0.724461	10.1482	-1
78.3	78.3377	Inf	0.000782601	24.5276	24.5306	24.5246	32.8176	0.504899	0.747632	10.1485	-1
78.6	78.6143	Inf	0.000785548	24.5094	24.5067	24.512	32.8161	0.504665	0.732385	10.1482	-1
78.9	79.0226	Inf	0.000788601	24.5223	24.5125	24.5322	32.8168	0.504862	0.682319	10.148	-1
79.2	79.3318	Inf	0.000791593	24.5198	24.5233	24.5163	32.8178	0.5044	0.698301	10.1481	-1
79.5	79.6071	Inf	0.000794589	24.51	24.5061	24.514	32.8167	0.505011	0.723859	10.1483	-1
79.8	79.8324	Inf	0.000797558	24.5089	24.5164	24.5014	32.8177	0.504197	0.752228	10.1481	-1
80.1	80.2758	Inf	0.000800593	24.5197	24.5183	24.5211	32.8167	0.505056	0.770745	10.148	-1
80.4	80.6722	Inf	0.000803592	24.5255	24.5357	24.5154	32.8165	0.504094	0.760798	10.1481	-1
80.7	80.9105	Inf	0.000806571	24.4992	24.5073	24.4911	32.8171	0.503563	0.750314	10.1479	-1
81	81.1822	Inf	0.000809594	24.5194	24.5184	24.5205	32.818	0.504485	0.66966	10.1482	-1
81.3	81.5042	Inf	0.00081257	24.5174	24.5256	24.5091	32.8178	0.504724	0.597994	10.1476	-1
81.6	81.7831	Inf	0.000815559	24.5298	24.5398	24.5198	32.8171	0.505081	0.591926	10.1482	-1
81.9	82.1234	Inf	0.000818553	24.507	24.5071	24.5069	32.8176	0.50463	0.638037	10.1479	-1
82.2	82.4034	Inf	0.000821555	24.5175	24.5231	24.512	32.8167	0.504219	0.670513	10.148	-1
82.5	82.7117	Inf	0.000824538	24.5126	24.5194	24.5058	32.8176	0.50451	0.695319	10.1482	-1
82.8	83.0511	Inf	0.000827544	24.5228	24.5314	24.5142	32.8172	0.504731	0.712704	10.1478	-1
83.1	83.4408	Inf	0.00083053	24.5034	24.5005	24.5062	32.8172	0.504758	0.717468	10.1479	-1
83.4	83.6187	Inf	0.000833535	24.5193	24.5251	24.5136	32.8164	0.504374	0.685137	10.1481	-1
83.7	83.8701	Inf	0.000836489	24.5226	24.5164	24.5289	32.8168	0.503229	0.628183	10.1482	-1
84	84.2176	Inf	0.000839527	24.5158	24.5042	24.5273	32.818	0.50342	0.629641	10.1477	-1
84.3	84.339	Inf	0.000842542	24.5254	24.5272	24.5236	32.8192	0.503521	0.64076	10.148	-1
84.6	84.8367	Inf	0.00084551	24.5132	24.508	24.5185	32.8175	0.504506	0.695319	10.148	-1
84.9	84.9516	Inf	0.000848531	24.5071	24.5138	24.5004	32.8176	0.503639	0.711993	10.1482	-1
85.2	85.4246	Inf	0.000851525	24.5083	24.5276	24.4891	32.8179	0.504144	0.719711	10.148	-1
85.5	85.5741	Inf	0.000854525	24.5309	24.5197	24.5421	32.8169	0.504122	0.699284	10.1477	-1
85.8	85.9145	Inf	0.000857525	24.5066	24.5039	24.5093	32.8178	0.504667	0.673396	10.1477	-1
86.1	85.9888	Inf	0.000860536	24.5309	24.5329	24.529	32.8176	0.504032	0.687421	10.1484	-1
86.4	86.1901	Inf	0.000863518	24.5045	24.5082	24.5007	32.8166	0.503039	0.698293	10.1481	-1
86.7	86.6139	Inf	0.000866495	24.5141	24.5125	24.5157	32.8181	0.505265	0.751967	10.148	-1
87	86.7584	Inf	0.000869523	24.5194	24.5297	24.5092	32.8183	0.504616	0.79561	10.1481	-1
87.3	86.9069	Inf	0.000872517	24.5139	24.5044	24.5234	32.8177	0.504439	0.812431	10.1479	-1
87.6	87.3104	Inf	0.000875549	24.5083	24.5255	24.4912	32.8173	0.504377	0.84954	10.1479	-1
87.9	87.5747	Inf	0.000878507	24.5329	24.538	24.5279	32.8165	0.503584	0.836761	10.1478	-1
88.2	87.7598	Inf	0.000881523	24.5155	24.517	24.514	32.8167	0.505091	0.791003	10.1479	-1
88.5	88.0772	Inf	0.000884518	24.5152	24.5273	24.5031	32.8171	0.503982	0.776932	10.1478	-1
88.8	88.1454	Inf	0.000887506	24.5277	24.5087	24.5468	32.8173	0.504742	0.789112	10.1481	-1
89.1	88.4335	Inf	0.000890536	24.5201	24.5301	24.5102	32.8184	0.50424	0.829259	10.1477	-1
89.4	88.6875	Inf	0.000893512	24.5232	24.5137	24.5326	32.8183	0.504044	0.894628	10.148	-1
89.7	89.1007	Inf	0.0008965	24.5123	24.5091	24.5155	32.8184	0.504968	0.886073	10.1481	-1
90	89.1695	Inf	0.000899519	24.5341	24.5252	24.5429	32.8159	0.504079	0.939579	10.1478	-1
90.3	89.3407	Inf	0.000902494	24.5257	24.5244	24.527	32.8175	0.504991	0.953932	10.1481	-1
90.6	89.4089	Inf	0.000905564	24.5022	24.5039	24.5006	32.8192	0.50388	0.847934	10.148	-1
90.9	89.6452	Inf	0.000908537	24.5066	24.5231	24.4902	32.8179	0.504671	0.76512	10.1478	-1
91.2	89.7033	Inf	0.000911524	24.5142	24.5152	24.5133	32.8175	0.505619	0.708319	10.148	-1
91.5	89.956	Inf	0.000914511	24.5026	24.5036	24.5015	32.8168	0.50485	0.676373	10.1479	-1
91.8	89.9974	Inf	0.000917517	24.5141	24.5125	24.5157	32.8181	0.505135	0.70034	10.1487	-1
92.1	90.0635	Inf	0.000920509	24.5039	24.5092	24.4986	32.817	0.504504	0.689436	10.148	-1
92.4	90.1429	Inf	0.000923515	24.5088	24.5001	24.5174	32.8149	0.505342	0.647404	10.1476	-1
92.7	90.3301	Inf	0.000926497	24.5166	24.5143	24.5189	32.8185	0.504098	0.630727	10.148	-1
93	90.5983	Inf	0.000929502	24.5011	24.5005	24.5018	32.8175	0.504569	0.648418	10.1481	-1
93.3	90.9578	Inf	0.000932501	24.521	24.5076	24.5344	32.8188	0.504875	0.7171	10.1479	-1
93.6	91.141	Inf	0.000935523	24.5056	24.5128	24.4985	32.8207	0.504214	0.717501	10.1484	-1
93.9	91.3412	Inf	0.000938529	24.5005	24.4892	24.5118	32.8185	0.504547	0.71028	10.1483	-1
94.2	91.4026	Inf	0.000941538	24.5003	24.503	24.4976	32.8177	0.503707	0.732109	10.1482	-1
94.5	91.8715	Inf	0.000944534	24.4977	24.494	24.5014	32.8182	0.504428	0.767768	10.1478	-1
94.8	91.9682	Inf	0.000947566	24.5363	24.5283	24.5443	32.8168	0.504292	0.810857	10.1477	-1
95.1	92.1043	Inf	0.000950588	24.514	24.5089	24.5191	32.8155	0.504948	0.783639	10.1483	-1
95.4	92.1786	Inf	0.00095361	24.5067	24.5011	24.5123	32.817	0.50445	0.733405	10.1477	-1
95.7	92.3458	Inf	0.000956607	24.5198	24.5097	24.5298	32.8178	0.503396	0.699538	10.1482	-1
96	92.4937	Inf	0.000959616	24.496	24.4981	24.494	32.8175	0.50446	0.678396	10.148	-1
96.3	92.6622	Inf	0.000962604	24.498	24.5056	24.4905	32.8173	0.5044	0.722642	10.1483	-1
96.6	92.7797	Inf	0.000965599	24.5201	24.5263	24.5138	32.8163	0.504418	0.781852	10.1484	-1
96.9	92.9955	Inf	0.000968604	24.5101	24.5142	24.506	32.8177	0.505452	0.848817	10.1482	-1
97.2	93.0659	Inf	0.000971621	24.4955	24.4956	24.4955	32.8189	0.505409	0.848447	10.1479	-1
97.5	93.2555	Inf	0.000974631	24.5192	24.5211	24.5173	32.8174	0.504408	0.826352	10.1485	-1
97.8	93.3768	Inf	0.000977626	24.5156	24.5324	24.4988	32.8184	0.504129	0.771426	10.1477	-1
98.1	93.4326	Inf	0.000980641	24.5075	24.505	24.51	32.8187	0.503438	0.709674	10.1477	-1
98.4	93.5112	Inf	0.000983608	24.5091	24.5006	24.5176	32.8179	0.504855	0.675737	10.1485	-1
98.7	93.6199	Inf	0.000986597	24.5291	24.5394	24.5188	32.8183	0.504059	0.657837	10.1479	-1
99	93.8338	Inf	0.00098961	24.5158	24.5153	24.5162	32.8189	0.504821	0.678963	10.1483	-1
99.3	93.7949	Inf	0.000992592	24.5123	24.5122	24.5124	32.816	0.505201	0.719772	10.1481	-1
99.6	93.8768	Inf	0.000995621	24.5088	24.5072	24.5103	32.8186	0.504224	0.709838	10.1479	-1
99.9	94.042	Inf	0.000998625	24.5053	24.5121	24.4984	32.8168	0.503188	0.689361	10.148	-1
100.2	94.0783	Inf	0.00100162	24.5108	24.5192	24.5025	32.8193	0.503705	0.620473	10.1481	-1
100.5	94.1726	Inf	0.00100462	24.4996	24.4893	24.5098	32.8175	0.503829	0.596256	10.1482	-1
100.8	94.1751	Inf	0.00100761	24.5201	24.5214	24.5188	32.8182	0.50438	0.597766	10.1482	-1
101.1	94.327	Inf	0.0010106	24.5231	24.5338	24.5124	32.8189	0.5037	0.584131	10.1482	-1
101.4	94.5063	Inf	0.0010136	24.5154	24.5098	24.5211	32.8191	0.503603	0.623003	10.1481	-1
101.7	94.5597	Inf	0.0010166	24.5183	24.5371	24.4996	32.818	0.505607	0.648534	10.1484	-1
102	94.7037	Inf	0.00101959	24.522	24.5176	24.5264	32.816	0.504056	0.667534	10.1477	-1
102.3	94.6201	Inf	0.0010226	24.5095	24.5162	24.5027	32.8186	0.504654	0.673953	10.1485	-1
102.6	94.7916	Inf	0.0010256	24.4921	24.4939	24.4902	32.8166	0.503952	0.645765	10.1483	-1
102.9	94.9228	Inf	0.0010286	24.5183	24.5256	24.511	32.8182	0.504091	0.643669	10.1482	-1
103.2	94.8886	Inf	0.0010316	24.5345	24.5369	24.532	32.8174	0.504375	0.622107	10.1484	-1
103.5	95.0359	Inf	0.00103462	24.5233	24.5335	24.513	32.8183	0.504613	0.601386	10.1478	-1
103.8	94.9729	Inf	0.00103761	24.5093	24.5104	24.5082	32.8186	0.505069	0.6436	10.1481	-1
104.1	94.8619	Inf	0.00104061	24.518	24.5259	24.5102	32.8195	0.504458	0.632698	10.1481	-1
104.4	94.9791	Inf	0.00104361	24.5104	24.5109	24.51	32.8197	0.505438	0.634586	10.1481	-1
104.7	95.044	Inf	0.0010466	24.5061	24.5008	24.5114	32.8192	0.504848	0.608043	10.1484	-1
105	95.0218	Inf	0.0010496	24.5212	24.5214	24.5211	32.8177	0.504127	0.585078	10.1477	-1
105.3	95.1473	Inf	0.00105259	24.5368	24.5332	24.5404	32.8173	0.504473	0.501979	10.148	-1
105.6	95.088	Inf	0.00105561	24.5133	24.5245	24.502	32.819	0.50379	0.573194	10.148	-1
105.9	95.1617	Inf	0.0010586	24.5066	24.5206	24.4926	32.8177	0.50388	0.557939	10.1483	-1
106.2	95.0975	Inf	0.0010616	24.5123	24.515	24.5097	32.8189	0.505663	0.572465	10.1483	-1
106.5	95.0588	Inf	0.0010646	24.5027	24.5001	24.5053	32.8195	0.504179	0.629195	10.1483	-1
106.8	95.1213	Inf	0.00106759	24.5258	24.5228	24.5289	32.8184	0.504288	0.597071	10.1483	-1
107.1	95.2254	Inf	0.00107057	24.5145	24.5019	24.5271	32.8191	0.50428	0.605661	10.1483	-1
107.4	95.2468	Inf	0.0010736	24.5272	24.5268	24.5276	32.8195	0.504344	0.567729	10.1483	-1
107.7	95.1025	Inf	0.00107658	24.5146	24.5272	24.502	32.8191	0.503582	0.497151	10.1478	-1
108	95.2011	Inf	0.00107964	24.4929	24.4771	24.5088	32.8197	0.504439	0.445891	10.1484	-1
108.3	95.2624	Inf	0.00108259	24.5104	24.5049	24.5159	32.82	0.504643	0.47885	10.1484	-1
108.6	95.2443	Inf	0.00108559	24.4913	24.4771	24.5056	32.8199	0.503225	0.512903	10.148	-1
108.9	95.1606	Inf	0.00108859	24.5197	24.51	24.5295	32.8192	0.503896	0.534909	10.1481	-1
109.2	95.2346	Inf	0.00109165	24.51	24.512	24.508	32.8184	0.50512	0.523041	10.1481	-1
109.5	95.2626	Inf	0.00109461	24.5245	24.5319	24.5172	32.8188	0.504014	0.523964	10.148	-1
109.8	95.2297	Inf	0.00109764	24.5099	24.5111	24.5087	32.8183	0.504117	0.453163	10.1483	-1
110.1	95.1644	Inf	0.00110064	24.5048	24.5001	24.5094	32.8184	0.504168	0.431128	10.1481	-1
110.4	95.1681	Inf	0.00110362	24.5298	24.5198	24.5397	32.819	0.503838	0.466398	10.1481	-1
110.7	95.1186	Inf	0.00110663	24.5243	24.5305	24.5182	32.819	0.503788	0.518178	10.148	-1
111	95.1505	Inf	0.00110963	24.5149	24.5067	24.5231	32.8193	0.503898	0.515572	10.1479	-1
111.3	95.0601	Inf	0.00111261	24.5159	24.5167	24.5151	32.8195	0.503879	0.54342	10.1481	-1
111.6	95.2566	Inf	0.00111565	24.5248	24.5294	24.5201	32.8196	0.503702	0.563356	10.1481	-1
111.9	95.2326	Inf	0.00111865	24.5134	24.4964	24.5305	32.8173	0.504064	0.544004	10.1481	-1
112.2	95.1603	Inf	0.00112165	24.5031	24.5087	24.4975	32.8184	0.503794	0.525071	10.148	-1
112.5	95.1625	Inf	0.0011246	24.5028	24.5032	24.5024	32.8204	0.503031	0.479994	10.1482	-1
112.8	95.172	Inf	0.00112764	24.5168	24.5185	24.5151	32.8194	0.504634	0.505734	10.1482	-1
113.1	95.2056	Inf	0.00113061	24.5049	24.5035	24.5064	32.8178	0.504387	0.545783	10.1483	-1
113.4	95.1338	Inf	0.00113364	24.5115	24.5107	24.5123	32.8185	0.504182	0.556482	10.1479	-1
113.7	95.2516	Inf	0.00113664	24.51	24.5184	24.5016	32.8195	0.503931	0.569045	10.148	-1
114	95.1867	Inf	0.00113965	24.5163	24.5128	24.5197	32.8197	0.503902	0.546056	10.1481	-1
114.3	95.1252	Inf	0.00114265	24.5074	24.5094	24.5055	32.819	0.504521	0.490679	10.1481	-1
114.6	95.0673	Inf	0.00114566	24.5208	24.5199	24.5217	32.8189	0.503485	0.426863	10.1484	-1
114.9	95.1561	Inf	0.00114864	24.5131	24.5178	24.5085	32.8193	0.504113	0.371088	10.148	-1
115.2	94.9516	Inf	0.00115164	24.5103	24.5143	24.5064	32.8178	0.503124	0.409556	10.1475	-1
115.5	94.9955	Inf	0.00115461	24.5102	24.5051	24.5153	32.8195	0.503537	0.440116	10.1479	-1
115.8	94.9784	Inf	0.00115763	24.5099	24.4984	24.5215	32.8193	0.503501	0.478663	10.1482	-1
116.1	94.9946	Inf	0.00116063	24.5279	24.5298	24.5261	32.8194	0.503723	0.490044	10.1479	-1
116.4	94.9861	Inf	0.00116361	24.5068	24.5118	24.5017	32.8191	0.504156	0.461669	10.1486	-1
116.7	94.9677	Inf	0.00116665	24.5164	24.5206	24.5121	32.8192	0.503899	0.4521	10.1478	-1
117	95.033	Inf	0.00116962	24.516	24.515	24.5171	32.8212	0.504184	0.402175	10.1483	-1
117.3	94.894	Inf	0.00117263	24.5214	24.5239	24.5189	32.8196	0.504327	0.399124	10.1484	-1
117.6	94.9136	Inf	0.0011756	24.5183	24.5209	24.5157	32.8197	0.503909	0.403374	10.1481	-1
117.9	94.8456	Inf	0.00117862	24.5052	24.5102	24.5002	32.8196	0.503851	0.430847	10.1482	-1
118.2	94.8181	Inf	0.0011816	24.5135	24.5252	24.5019	32.8196	0.504878	0.462944	10.148	-1
118.5	94.8606	Inf	0.0011846	24.5249	24.5185	24.5312	32.8186	0.503829	0.481204	10.1481	-1
118.8	94.8123	Inf	0.00118763	24.516	24.5103	24.5217	32.8179	0.504435	0.518932	10.148	-1
119.1	94.7735	Inf	0.0011906	24.5164	24.5261	24.5068	32.8191	0.504032	0.52976	10.1483	-1
119.4	94.7598	Inf	0.00119356	24.5147	24.5146	24.5147	32.8199	0.504458	0.500392	10.1484	-1
119.7	94.7174	Inf	0.00119663	24.5078	24.509	24.5066	32.8186	0.503892	0.532195	10.1481	-1
120	94.6416	Inf	0.0011996	24.5074	24.5112	24.5037	32.8202	0.504314	0.502352	10.1481	-1
120.3	94.5781	Inf	0.0012026	24.5012	24.5078	24.4945	32.8195	0.503901	0.555366	10.1482	-1
120.6	94.4722	Inf	0.00120562	24.5264	24.5285	24.5244	32.82	0.504139	0.589627	10.1484	-1
120.9	94.4471	Inf	0.0012086	24.5027	24.5004	24.5049	32.8196	0.502871	0.594175	10.148	-1
121.2	94.3888	Inf	0.00121162	24.5122	24.5066	24.5179	32.8202	0.503519	0.523447	10.1483	-1
121.5	94.3254	Inf	0.00121462	24.511	24.5153	24.5066	32.8191	0.504685	0.508454	10.1484	-1
121.8	94.154	Inf	0.00121758	24.5092	24.5137	24.5046	32.8181	0.505385	0.517276	10.1484	-1
122.1	94.214	Inf	0.00122062	24.5106	24.5245	24.4968	32.8202	0.503855	0.495266	10.1483	-1
122.4	94.1579	Inf	0.00122363	24.506	24.5129	24.4992	32.8204	0.504279	0.468803	10.1485	-1
122.7	94.0132	Inf	0.00122658	24.5235	24.5251	24.5218	32.8204	0.503996	0.552007	10.1484	-1
123	93.9467	Inf	0.00122961	24.5115	24.5114	24.5117	32.8204	0.503891	0.541597	10.1483	-1
123.3	93.9964	Inf	0.00123261	24.5217	24.5222	24.5211	32.8191	0.504582	0.496811	10.1485	-1
123.6	93.8939	Inf	0.00123564	24.5162	24.5112	24.5212	32.8192	0.503721	0.537123	10.1481	-1
123.9	93.8125	Inf	0.00123861	24.5213	24.5209	24.5217	32.8198	0.503423	0.515434	10.1481	-1
124.2	93.743	Inf	0.00124163	24.5085	24.5118	24.5052	32.8207	0.504229	0.46997	10.1486	-1
124.5	93.528	Inf	0.00124461	24.5198	24.5158	24.5238	32.8199	0.504083	0.489404	10.148	-1
124.8	93.5994	Inf	0.00124761	24.5172	24.5159	24.5185	32.8187	0.504426	0.511177	10.1484	-1
125.1	93.5133	Inf	0.00125063	24.509	24.5111	24.5069	32.8205	0.504129	0.514362	10.1482	-1
125.4	93.4512	Inf	0.0012536	24.5146	24.5175	24.5116	32.8201	0.504185	0.532158	10.1483	-1
125.7	93.3708	Inf	0.0012566	24.5115	24.5129	24.5101	32.8201	0.504016	0.589269	10.1485	-1
126	93.3307	Inf	0.00125961	24.5206	24.5162	24.5251	32.8195	0.503957	0.599632	10.1481	-1
126.3	93.2652	Inf	0.00126262	24.5014	24.5038	24.499	32.8206	0.504342	0.587007	10.1484	-1
126.6	93.0816	Inf	0.00126565	24.5198	24.5176	24.5219	32.8209	0.50452	0.484873	10.1487	-1
126.9	93.1547	Inf	0.00126861	24.5215	24.5149	24.5282	32.8197	0.504591	0.46994	10.1484	-1
127.2	93.0562	Inf	0.00127162	24.5306	24.529	24.5322	32.82	0.504467	0.514532	10.1485	-1
127.5	92.9722	Inf	0.0012746	24.5016	24.5088	24.4943	32.819	0.504277	0.513934	10.1482	-1
127.8	92.9815	Inf	0.00127763	24.526	24.5258	24.5262	32.8209	0.503663	0.509919	10.1487	-1
128.1	92.9979	Inf	0.00128061	24.5132	24.4999	24.5264	32.82	0.503416	0.477224	10.1482	-1
128.4	92.8534	Inf	0.00128362	24.5129	24.5105	24.5152	32.8212	0.503993	0.478068	10.1484	-1
128.7	92.7685	Inf	0.0012866	24.5016	24.5038	24.4993	32.821	0.504171	0.489927	10.1482	-1
129	92.6349	Inf	0.00128961	24.5054	24.5081	24.5028	32.8196	0.50356	0.455469	10.1484	-1
129.3	92.6324	Inf	0.0012926	24.5127	24.5116	24.5138	32.8214	0.50385	0.433688	10.1484	-1
129.6	92.5709	Inf	0.00129558	24.5037	24.4985	24.5088	32.8204	0.503735	0.471508	10.1485	-1
129.9	92.4931	Inf	0.00129857	24.5139	24.5114	24.5165	32.8198	0.50396	0.505288	10.1486	-1
130.2	92.4791	Inf	0.00130162	24.5128	24.5162	24.5095	32.8197	0.504314	0.550408	10.1484	-1
130.5	92.3932	Inf	0.0013046	24.5001	24.5097	24.4905	32.8192	0.503314	0.558541	10.148	-1
130.8	92.3625	Inf	0.00130763	24.5085	24.5173	24.4997	32.8194	0.504084	0.546327	10.148	-1
131.1	92.2302	Inf	0.00131059	24.5136	24.5091	24.5181	32.8195	0.50343	0.521541	10.1481	-1
131.4	92.1311	Inf	0.0013136	24.5261	24.5224	24.5298	32.8197	0.504377	0.498009	10.1483	-1
131.7	92.1227	Inf	0.0013166	24.5045	24.5073	24.5017	32.8205	0.504142	0.477987	10.1485	-1
132	92.0501	Inf	0.0013196	24.5203	24.514	24.5265	32.8203	0.503769	0.484179	10.1485	-1
132.3	92.0406	Inf	0.00132256	24.5035	24.4988	24.5081	32.8187	0.503766	0.51796	10.1483	-1
132.6	91.9817	Inf	0.00132561	24.5256	24.52	24.5312	32.8198	0.503693	0.57318	10.1481	-1
132.9	91.9497	Inf	0.00132859	24.5019	24.5132	24.4907	32.8206	0.50215	0.549137	10.1482	-1
133.2	91.8398	Inf	0.00133161	24.5107	24.5115	24.5098	32.8191	0.503513	0.538724	10.1483	-1
133.5	91.8394	Inf	0.00133458	24.517	24.5168	24.5172	32.8215	0.503995	0.472672	10.1483	-1
133.8	91.6775	Inf	0.0013376	24.5067	24.5044	24.5091	32.8196	0.50338	0.464765	10.1482	-1
134.1	91.6296	Inf	0.0013406	24.5141	24.5195	24.5087	32.821	0.503757	0.458482	10.1482	-1
134.4	91.6012	Inf	0.00134358	24.5231	24.5212	24.5251	32.8204	0.503157	0.494852	10.1483	-1
134.7	91.5544	Inf	0.00134654	24.5128	24.5148	24.5107	32.8209	0.502946	0.554503	10.1482	-1
135	91.4955	Inf	0.00134958	24.5091	24.5156	24.5027	32.8209	0.503566	0.599463	10.1485	-1
135.3	91.3836	Inf	0.00135256	24.4941	24.489	24.4992	32.8202	0.504407	0.604208	10.1484	-1
135.6	91.2918	Inf	0.0013556	24.5129	24.5262	24.4996	32.8206	0.503503	0.580894	10.1485	-1
135.9	91.2344	Inf	0.00135859	24.5219	24.5203	24.5236	32.8208	0.503693	0.536325	10.1481	-1
136.2	91.2731	Inf	0.00136159	24.5142	24.5213	24.5071	32.8206	0.504368	0.524383	10.1481	-1
136.5	91.1856	Inf	0.0013646	24.5118	24.5157	24.508	32.8195	0.503523	0.585633	10.1482	-1
136.8	91.0571	Inf	0.00136758	24.5181	24.5242	24.5119	32.8201	0.503325	0.6205	10.1486	-1
137.1	91.0813	Inf	0.00137061	24.503	24.5143	24.4917	32.8195	0.503315	0.576242	10.1482	-1
137.4	90.9876	Inf	0.0013736	24.5139	24.5193	24.5084	32.8209	0.503864	0.597593	10.1485	-1
137.7	90.932	Inf	0.00137656	24.5146	24.5167	24.5125	32.8195	0.504466	0.587014	10.1482	-1
138	90.8641	Inf	0.00137959	24.52	24.5146	24.5255	32.8199	0.502873	0.583467	10.1482	-1
138.3	90.8203	Inf	0.0013826	24.5209	24.5192	24.5226	32.8208	0.504253	0.56014	10.1488	-1
138.6	90.6547	Inf	0.00138558	24.5142	24.5206	24.5078	32.8212	0.503699	0.548409	10.1483	-1
138.9	90.7357	Inf	0.00138856	24.5132	24.5034	24.5229	32.821	0.503392	0.511036	10.1482	-1
139.2	90.6895	Inf	0.00139156	24.5245	24.512	24.5371	32.8192	0.504468	0.525625	10.1482	-1
139.5	90.6088	Inf	0.00139459	24.507	24.5025	24.5115	32.8211	0.50316	0.587829	10.1482	-1
139.8	90.4439	Inf	0.00139756	24.5099	24.5074	24.5124	32.82	0.503888	0.607073	10.1485	-1
140.1	90.4481	Inf	0.00140058	24.5175	24.5226	24.5124	32.8198	0.503912	0.643161	10.1483	-1
140.4	90.3561	Inf	0.00140359	24.5243	24.5209	24.5278	32.8201	0.503894	0.594185	10.1483	-1
140.7	90.2644	Inf	0.00140661	24.5087	24.5016	24.5158	32.8201	0.504558	0.554798	10.1482	-1
141	90.2086	Inf	0.0014096	24.5181	24.5136	24.5225	32.8206	0.503935	0.512734	10.1482	-1
141.3	90.1801	Inf	0.00141255	24.516	24.5201	24.512	32.8193	0.504716	0.537839	10.1482	-1
141.6	90.1026	Inf	0.00141558	24.4975	24.5048	24.4902	32.82	0.504085	0.532574	10.1483	-1
141.9	89.999	Inf	0.00141859	24.512	24.5153	24.5087	32.8202	0.504658	0.554853	10.1484	-1
142.2	89.9756	Inf	0.00142159	24.5074	24.5119	24.5029	32.8211	0.504588	0.542839	10.1483	-1
142.5	89.769	Inf	0.00142458	24.52	24.519	24.521	32.8207	0.502731	0.593393	10.1482	-1
142.8	89.7329	Inf	0.00142756	24.5109	24.5192	24.5026	32.8205	0.504629	0.554632	10.1487	-1
143.1	89.5912	Inf	0.00143058	24.5115	24.5214	24.5016	32.8206	0.50309	0.497762	10.1483	-1
143.4	89.4772	Inf	0.00143358	24.5311	24.5229	24.5393	32.8218	0.503596	0.507064	10.1484	-1
143.7	89.2441	Inf	0.00143658	24.5098	24.5053	24.5142	32.8209	0.503659	0.470724	10.1481	-1
144	89.1015	Inf	0.00143954	24.5149	24.5172	24.5126	32.8214	0.503275	0.495539	10.1484	-1
144.3	88.8288	Inf	0.00144257	24.5269	24.5445	24.5092	32.8219	0.503932	0.538703	10.1483	-1
144.6	-1.09091	-1.7113	0.00144618	24.5487	24.553	24.5445	32.8234	0.505029	0.0247672	10.1466	-1
144.9	-1.22342	-1.75489	0.00144856	24.5156	24.5125	24.5187	32.8228	0.504914	0.239238	10.1465	-1
145.2	-1.10292	-1.7965	0.00145158	24.5266	24.5392	24.514	32.8216	0.505556	0.2112	10.1469	-1
145.5	-1.19708	-1.78617	0.00145458	24.5288	24.5324	24.5253	32.8213	0.505385	0.186848	10.1465	-1
145.8	-1.11417	-1.79965	0.00145758	24.5235	24.5296	24.5174	32.8217	0.504708	0.171603	10.1468	-1
146.1	-1.23965	-1.81441	0.00146057	24.5306	24.5311	24.5301	32.822	0.504961	0.188949	10.147	-1
146.4	-1.16906	-1.79561	0.00146354	24.5414	24.553	24.5299	32.8231	0.505888	0.206474	10.1467	-1
146.7	-1.16227	-1.79898	0.00146656	24.5306	24.5359	24.5253	32.8219	0.504845	0.241277	10.1468	-1
147	-1.17101	-1.80479	0.00146958	24.5296	24.5339	24.5252	32.8213	0.505126	0.246378	10.1465	-1
147.3	-1.21643	-1.79656	0.00147257	24.531	24.5275	24.5344	32.8212	0.504918	0.245823	10.1469	-1
147.6	-1.2136	-1.80412	0.00147557	24.5215	24.5287	24.5143	32.8206	0.505605	0.204299	10.1469	-1
147.9	-1.22223	-1.80564	0.00147857	24.5255	24.5248	24.5263	32.8227	0.505316	0.159915	10.1467	-1
148.2	-1.15514	-1.79642	0.00148156	24.5287	24.5365	24.5208	32.8224	0.505476	0.133868	10.1465	-1
148.5	-1.15829	-1.78477	0.00148455	24.522	24.5196	24.5244	32.8219	0.505373	0.130016	10.1465	-1
148.8	-1.119	-1.80386	0.00148754	24.5283	24.5272	24.5295	32.8226	0.505511	0.154437	10.1466	-1
149.1	-1.16379	-1.80142	0.00149055	24.541	24.5468	24.5353	32.8217	0.505083	0.190962	10.1466	-1
149.4	-1.1107	-1.79349	0.00149357	24.5202	24.5311	24.5093	32.8206	0.505357	0.216562	10.1465	-1
149.7	-1.2682	-1.80829	0.00149656	24.5293	24.5299	24.5287	32.8223	0.505497	0.196035	10.1468	-1
149.85	-1.15727	-1.7947	0.00149809	24.5238	24.5218	24.5258	32.8222	0.505583	0.185678	10.1465	-1