File: data/ReportRaw/Resin_TXT/Unknown_Resin/Tensile_Test_04.txt
Program Started: Tue, Jul 16, 2024	1:13:32 PM	System: µTS4
Test Notes:

User displacement limits active. Low limit -20.000E-3 m, high limit 20.000E-3 m.
User load limits active. Low limit -1.600E+3 N, high limit 1.600E+3 N.

No closed loop control sensors in this test.

Test Segments:
 1. Ramp in Drive Control, +5.00E-3m Amplitude, 10.00E-6 m/s Speed. Sampling at 20.000 Hz, Lowpass Filter Cutoff of 100.000 Hz

Specimen Thickness (m): 	1.550E-3
Specimen Width (m): 	1.910E-3
Specimen Diameter (m): 	0.000E+0
Specimen Area (m^2): 	2.960E-6
Specimen Length (m): 	5.000E-3

Test Started: Tue, Jul 16, 2024	2:49:20 PM
Time (s)	LCFS1600 (N)	LCW1600 (N)	ECATENC (m)	SpecTemp (C)	AirTemp (C)	OutletTemp (C)	JTemp1600 (C)	GTemp1600 (C)	CUR (A)	Ve (V)	Trigger (#)
0.0000000000E+0	-0.0693721	-0.110129	-1.44416e-16	25.1804	25.2557	25.1052	32.994	0.504007	0.0332673	10.148	-1
0.4	0.0868081	0.0162895	3.80831e-06	25.185	25.2375	25.1324	32.9925	0.503822	0.199356	10.1476	-1
0.8	0.147716	0.114612	7.80654e-06	25.1696	25.2307	25.1086	32.9935	0.504323	0.246355	10.1479	-1
1.2	0.291376	0.224476	1.18076e-05	25.1752	25.2464	25.104	32.9917	0.50422	0.234083	10.1481	-1
1.6	0.376541	0.296951	1.58043e-05	25.181	25.2404	25.1215	32.9948	0.503748	0.283902	10.1483	-1
2	0.573678	0.398071	1.98304e-05	25.1715	25.2271	25.116	32.9942	0.503671	0.289909	10.148	-1
2.4	0.49372	0.481796	2.38472e-05	25.1935	25.257	25.1299	32.993	0.502916	0.239319	10.1481	-1
2.8	0.642668	0.599488	2.78474e-05	25.1744	25.2308	25.118	32.9941	0.503799	0.223217	10.1481	-1
3.2	0.755547	0.694103	3.18417e-05	25.1673	25.2194	25.1152	32.9942	0.504091	0.256651	10.148	-1
3.6	0.826154	0.790923	3.58505e-05	25.1726	25.2304	25.1149	32.9933	0.504108	0.284134	10.1477	-1
4	0.906827	0.924069	3.982e-05	25.1956	25.2557	25.1355	32.9936	0.503356	0.270552	10.1481	-1
4.4	1.06756	1.03189	4.38433e-05	25.1712	25.2383	25.1042	32.9929	0.504903	0.233604	10.1479	-1
4.8	1.22284	1.16632	4.78493e-05	25.172	25.238	25.106	32.9927	0.503666	0.237661	10.1482	-1
5.2	1.32858	1.26747	5.18451e-05	25.1912	25.2588	25.1236	32.9938	0.503919	0.221067	10.1479	-1
5.6	1.45109	1.43059	5.58457e-05	25.1792	25.2434	25.1149	32.9938	0.504409	0.219773	10.1479	-1
6	1.55018	1.55275	5.98351e-05	25.1785	25.2449	25.112	32.9937	0.504071	0.255024	10.1481	-1
6.4	1.68409	1.70077	6.38265e-05	25.1603	25.222	25.0986	32.9929	0.505292	0.256297	10.1478	-1
6.8	1.86875	1.85813	6.78487e-05	25.1816	25.2377	25.1255	32.9937	0.504046	0.255799	10.1481	-1
7.2	1.95396	2.00503	7.18392e-05	25.1757	25.2577	25.0936	32.9931	0.505845	0.228242	10.148	-1
7.6	2.25141	2.17131	7.58267e-05	25.1562	25.2195	25.0929	32.9941	0.503867	0.217313	10.1479	-1
8	2.25912	2.30338	7.98435e-05	25.1798	25.2405	25.1191	32.9939	0.504008	0.227877	10.1479	-1
8.4	2.60213	2.50397	8.38109e-05	25.1762	25.2339	25.1185	32.9925	0.503845	0.244612	10.1478	-1
8.8	2.7142	2.6637	8.78374e-05	25.1666	25.24	25.0931	32.9952	0.504745	0.299665	10.1481	-1
9.2	2.79961	2.83656	9.18279e-05	25.1705	25.2239	25.117	32.9939	0.503912	0.286424	10.148	-1
9.6	3.04102	3.03449	9.58344e-05	25.184	25.2414	25.1267	32.9928	0.503974	0.220284	10.1481	-1
10	3.26045	3.20601	9.98365e-05	25.1891	25.2467	25.1315	32.9925	0.504675	0.220377	10.1485	-1
10.4	3.46306	3.40374	0.000103821	25.1791	25.2477	25.1105	32.9947	0.50395	0.278547	10.1479	-1
10.8	3.58422	3.59736	0.000107812	25.1985	25.2532	25.1437	32.9936	0.503753	0.379445	10.1478	-1
11.2	3.85461	3.82428	0.000111818	25.1999	25.2721	25.1276	32.9947	0.503893	0.405904	10.1481	-1
11.6	4.06588	4.02553	0.00011585	25.1617	25.234	25.0894	32.9932	0.50387	0.373287	10.1482	-1
12	4.28556	4.21799	0.000119823	25.1893	25.2589	25.1197	32.9932	0.504087	0.333352	10.1484	-1
12.4	4.49544	4.44618	0.000123845	25.1908	25.2551	25.1265	32.9931	0.504404	0.29679	10.1482	-1
12.8	4.67593	4.65981	0.000127823	25.1639	25.2342	25.0937	32.9926	0.505197	0.31765	10.1487	-1
13.2	4.87859	4.89392	0.000131827	25.1933	25.2658	25.1209	32.9954	0.504704	0.310515	10.1483	-1
13.6	5.15341	5.10242	0.000135837	25.1818	25.258	25.1056	32.9935	0.504748	0.310612	10.1483	-1
14	5.37468	5.36189	0.000139853	25.1694	25.237	25.1017	32.9941	0.503782	0.287951	10.1482	-1
14.4	5.65006	5.59697	0.000143849	25.1786	25.2483	25.109	32.9935	0.503899	0.229789	10.148	-1
14.8	5.92937	5.82271	0.000147845	25.1828	25.2441	25.1216	32.994	0.503692	0.202324	10.1479	-1
15.2	6.15181	6.08161	0.000151818	25.1833	25.2508	25.1158	32.9943	0.504065	0.211598	10.1478	-1
15.6	6.39056	6.33472	0.000155798	25.1731	25.247	25.0992	32.9927	0.503752	0.237535	10.1481	-1
16	6.661	6.59553	0.00015983	25.1931	25.2605	25.1257	32.9934	0.503925	0.284813	10.1478	-1
16.4	6.85446	6.81914	0.000163826	25.1851	25.2447	25.1256	32.9951	0.504122	0.264822	10.1481	-1
16.8	7.20502	7.1117	0.000167781	25.1777	25.2444	25.111	32.9954	0.504541	0.243648	10.1481	-1
17.2	7.4805	7.38046	0.000171832	25.1754	25.2348	25.1159	32.9933	0.504192	0.218331	10.1485	-1
17.6	7.6627	7.63495	0.00017581	25.1782	25.2433	25.1131	32.9932	0.504342	0.231239	10.1484	-1
18	7.9404	7.92311	0.00017982	25.1735	25.2366	25.1104	32.9941	0.504255	0.270493	10.1483	-1
18.4	8.218	8.20131	0.000183824	25.1791	25.2365	25.1217	32.9947	0.503502	0.279482	10.1483	-1
18.8	8.50878	8.49864	0.000187793	25.1836	25.2467	25.1205	32.9934	0.504938	0.22108	10.148	-1
19.2	8.72236	8.75233	0.000191822	25.1751	25.2388	25.1115	32.9945	0.504342	0.207157	10.1479	-1
19.6	9.08992	9.05886	0.000195807	25.1674	25.2264	25.1084	32.9941	0.503621	0.164	10.1479	-1
20	9.43075	9.35397	0.000199804	25.1631	25.22	25.1062	32.9934	0.504043	0.185399	10.1478	-1
20.4	9.67405	9.63973	0.000203806	25.1808	25.248	25.1136	32.9928	0.503814	0.19375	10.1481	-1
20.8	9.99525	9.96769	0.000207821	25.174	25.244	25.1041	32.9948	0.504249	0.240958	10.1478	-1
21.2	10.3468	10.2865	0.000211805	25.1691	25.2315	25.1066	32.995	0.505257	0.200013	10.1477	-1
21.6	10.6525	10.6135	0.000215814	25.1804	25.236	25.1247	32.9939	0.504262	0.169044	10.1483	-1
22	10.9447	10.8983	0.000219758	25.1673	25.2291	25.1054	32.9942	0.503516	0.140924	10.1479	-1
22.4	11.3001	11.2379	0.000223758	25.1693	25.2329	25.1057	32.9937	0.504638	0.15321	10.1482	-1
22.8	11.5888	11.5581	0.000227821	25.1842	25.2502	25.1181	32.9946	0.503157	0.183578	10.1481	-1
23.2	11.9281	11.8692	0.000231778	25.1739	25.2362	25.1117	32.9946	0.505985	0.187249	10.1485	-1
23.6	12.3124	12.2297	0.000235773	25.1832	25.2353	25.1311	32.9951	0.504864	0.166602	10.148	-1
24	12.57	12.5446	0.00023974	25.1896	25.2553	25.1239	32.9942	0.504604	0.104624	10.1482	-1
24.4	12.9097	12.9007	0.000243733	25.1728	25.2346	25.1111	32.9938	0.504729	0.121661	10.1481	-1
24.8	13.243	13.2376	0.000247732	25.1658	25.2258	25.1058	32.9938	0.504441	0.174222	10.1482	-1
25.2	13.5828	13.5892	0.000251751	25.1673	25.2331	25.1015	32.9947	0.503316	0.213026	10.1479	-1
25.6	14.021	13.9605	0.000255731	25.1731	25.237	25.1093	32.9933	0.503916	0.235971	10.1483	-1
26	14.2916	14.2737	0.000259758	25.1702	25.2336	25.1069	32.9949	0.504393	0.213223	10.1484	-1
26.4	14.7374	14.6592	0.000263752	25.1613	25.2251	25.0976	32.9946	0.504872	0.211035	10.1486	-1
26.8	15.0334	15.0104	0.000267728	25.1852	25.2463	25.124	32.9939	0.504433	0.223512	10.1485	-1
27.2	15.5335	15.4207	0.000271734	25.1748	25.2347	25.115	32.9952	0.504121	0.230716	10.1482	-1
27.6	15.7824	15.7815	0.000275718	25.1668	25.2313	25.1023	32.9938	0.503629	0.271542	10.1482	-1
28	16.1108	16.171	0.000279732	25.1662	25.2221	25.1103	32.9934	0.503613	0.274198	10.1483	-1
28.4	16.5533	16.5602	0.000283746	25.1813	25.2443	25.1184	32.9961	0.504488	0.236915	10.1481	-1
28.8	16.867	16.9081	0.00028773	25.1933	25.2461	25.1405	32.9946	0.503254	0.190001	10.1483	-1
29.2	17.3571	17.2904	0.000291735	25.1545	25.2119	25.0972	32.9946	0.504016	0.18942	10.1484	-1
29.6	17.6689	17.6506	0.000295717	25.1803	25.2394	25.1212	32.9959	0.503453	0.216902	10.1485	-1
30	18.0318	18.0478	0.00029972	25.1956	25.2565	25.1346	32.994	0.50365	0.234984	10.1483	-1
30.4	18.447	18.4172	0.000303716	25.1746	25.2469	25.1022	32.9963	0.504948	0.22769	10.1481	-1
30.8	18.9133	18.8126	0.00030773	25.1791	25.241	25.1172	32.9944	0.503953	0.180092	10.1482	-1
31.2	19.242	19.2191	0.000311725	25.1653	25.2314	25.0992	32.9933	0.504206	0.15548	10.1485	-1
31.6	19.5686	19.5712	0.000315731	25.1784	25.2488	25.108	32.9953	0.503765	0.158161	10.1484	-1
32	19.924	19.9881	0.00031971	25.188	25.2449	25.1312	32.9943	0.503455	0.213296	10.1485	-1
32.4	20.4257	20.3609	0.000323728	25.1668	25.22	25.1137	32.9947	0.503418	0.228516	10.1485	-1
32.8	20.841	20.7898	0.000327729	25.1733	25.2471	25.0994	32.9938	0.503702	0.228082	10.1486	-1
33.2	21.2067	21.1958	0.000331725	25.1634	25.218	25.1087	32.9957	0.503583	0.227516	10.1483	-1
33.6	21.5852	21.6051	0.00033572	25.1694	25.237	25.1018	32.9943	0.503378	0.2017	10.1484	-1
34	22.116	22.0607	0.000339709	25.1812	25.2405	25.1219	32.9941	0.50375	0.210454	10.1487	-1
34.4	22.5845	22.5252	0.000343703	25.1696	25.2329	25.1063	32.9951	0.503699	0.24225	10.1485	-1
34.8	23.0087	22.9982	0.000347705	25.1675	25.2329	25.1021	32.9949	0.503498	0.33897	10.1486	-1
35.2	23.4479	23.3904	0.00035172	25.1871	25.2394	25.1348	32.9936	0.504807	0.313408	10.1487	-1
35.6	23.8824	23.8336	0.000355719	25.161	25.2341	25.0879	32.9941	0.503436	0.289289	10.149	-1
36	24.2307	24.2592	0.000359711	25.1641	25.2255	25.1028	32.9933	0.503554	0.290017	10.1489	-1
36.4	24.701	24.6831	0.000363697	25.1603	25.2125	25.1082	32.9951	0.504152	0.236959	10.1491	-1
36.8	25.06	25.1085	0.000367722	25.1773	25.2244	25.1303	32.9935	0.504513	0.264064	10.1488	-1
37.2	25.4506	25.5063	0.000371713	25.1676	25.23	25.1053	32.9932	0.503435	0.271737	10.1489	-1
37.6	25.9764	25.9415	0.000375713	25.1745	25.2429	25.106	32.9934	0.504413	0.254056	10.1484	-1
38	26.4063	26.3515	0.000379731	25.176	25.2312	25.1208	32.9947	0.504054	0.22174	10.1486	-1
38.4	26.7615	26.7898	0.000383698	25.1681	25.2228	25.1133	32.995	0.504485	0.235724	10.1489	-1
38.8	27.2066	27.2131	0.000387701	25.1711	25.2287	25.1136	32.9942	0.504018	0.211807	10.149	-1
39.2	27.6048	27.6393	0.000391708	25.1712	25.2421	25.1002	32.9956	0.504705	0.298798	10.1492	-1
39.6	28.0815	28.0852	0.000395726	25.1693	25.2447	25.0938	32.9945	0.503836	0.271652	10.1489	-1
40	28.5656	28.5221	0.000399704	25.1553	25.2211	25.0894	32.9933	0.504088	0.273274	10.1487	-1
40.4	28.923	28.9928	0.000403698	25.175	25.2345	25.1155	32.9938	0.503947	0.268979	10.1486	-1
40.8	29.5791	29.4807	0.000407702	25.1689	25.2403	25.0974	32.9927	0.504065	0.225295	10.1489	-1
41.2	30.1229	30.0303	0.000411688	25.1641	25.2228	25.1054	32.995	0.504728	0.225971	10.1488	-1
41.6	30.616	30.5326	0.000415675	25.1595	25.2248	25.0942	32.9939	0.504728	0.288286	10.1488	-1
42	30.9662	Inf	0.000419722	25.1824	25.2409	25.124	32.9943	0.503851	0.283509	10.1487	-1
42.4	31.4104	Inf	0.000423713	25.1524	25.2243	25.0805	32.9953	0.503144	0.290118	10.1487	-1
42.8	31.6579	Inf	0.000427713	25.1682	25.2267	25.1096	32.9949	0.504985	0.251043	10.1487	-1
43.2	32.0809	Inf	0.000431699	25.166	25.2331	25.099	32.9939	0.503779	0.239883	10.1488	-1
43.6	32.4043	Inf	0.000435679	25.1691	25.2287	25.1096	32.9941	0.504006	0.241562	10.149	-1
44	32.8311	Inf	0.000439682	25.1639	25.2357	25.0921	32.9949	0.50379	0.303603	10.1487	-1
44.4	33.2946	Inf	0.000443711	25.1623	25.2279	25.0966	32.9939	0.503895	0.337808	10.1491	-1
44.8	33.7015	Inf	0.000447688	25.1727	25.2296	25.1158	32.9939	0.503651	0.316556	10.149	-1
45.2	34.0832	Inf	0.000451701	25.169	25.2405	25.0976	32.9947	0.504237	0.285974	10.1491	-1
45.6	34.411	Inf	0.000455701	25.1605	25.2233	25.0978	32.9939	0.503949	0.255036	10.1492	-1
46	34.8405	Inf	0.000459678	25.1786	25.2392	25.1179	32.9945	0.504009	0.246208	10.1492	-1
46.4	35.3256	Inf	0.000463676	25.1698	25.2295	25.1101	32.9949	0.50444	0.285561	10.149	-1
46.8	35.7335	Inf	0.000467708	25.1707	25.2365	25.1048	32.9954	0.504048	0.275801	10.1492	-1
47.2	36.1896	Inf	0.000471682	25.1463	25.2115	25.081	32.9943	0.503261	0.223996	10.1496	-1
47.6	36.6646	Inf	0.00047569	25.1704	25.2295	25.1114	32.9927	0.50352	0.185424	10.149	-1
48	37.1885	Inf	0.000479708	25.166	25.2344	25.0976	32.9945	0.503536	0.154053	10.1492	-1
48.4	37.654	Inf	0.000483691	25.1629	25.2209	25.1048	32.9949	0.503521	0.18655	10.1496	-1
48.8	38.0234	Inf	0.000487729	25.1679	25.2312	25.1046	32.995	0.503622	0.256198	10.1494	-1
49.2	38.4551	Inf	0.000491713	25.1578	25.217	25.0985	32.9951	0.504121	0.299054	10.1493	-1
49.6	38.8857	Inf	0.000495727	25.1564	25.2129	25.0999	32.9952	0.503985	0.322871	10.1494	-1
50	39.2705	Inf	0.000499723	25.1612	25.2192	25.1032	32.9944	0.503286	0.266547	10.1492	-1
50.4	39.6675	Inf	0.000503749	25.1606	25.2155	25.1056	32.9931	0.503856	0.246516	10.1492	-1
50.8	40.039	Inf	0.000507699	25.1553	25.2282	25.0823	32.9936	0.503766	0.273406	10.1493	-1
51.2	40.4305	Inf	0.000511746	25.1618	25.2252	25.0983	32.9944	0.504606	0.310696	10.1494	-1
51.6	40.8877	Inf	0.000515667	25.1601	25.2176	25.1026	32.9932	0.503764	0.339449	10.1492	-1
52	41.1683	Inf	0.000519727	25.1644	25.2291	25.0997	32.9938	0.504327	0.279632	10.1493	-1
52.4	41.4644	Inf	0.00052376	25.1488	25.2069	25.0906	32.9959	0.504758	0.228794	10.1493	-1
52.8	41.8101	Inf	0.000527681	25.1618	25.2172	25.1063	32.9946	0.504639	0.219618	10.1493	-1
53.2	42.1295	Inf	0.000531695	25.1574	25.2116	25.1032	32.9934	0.504115	0.24623	10.1493	-1
53.6	42.4989	Inf	0.000535736	25.1645	25.223	25.106	32.9947	0.504993	0.285633	10.1497	-1
54	42.7913	Inf	0.000539748	25.1674	25.2277	25.1071	32.9948	0.503564	0.301807	10.1496	-1
54.4	43.0961	Inf	0.000543734	25.1764	25.2312	25.1216	32.9952	0.503228	0.296422	10.1496	-1
54.8	43.4356	Inf	0.000547739	25.1611	25.2129	25.1094	32.9947	0.503156	0.28094	10.1494	-1
55.2	43.768	Inf	0.000551705	25.1525	25.2165	25.0886	32.9941	0.503488	0.238194	10.1494	-1
55.6	44.1746	Inf	0.000555725	25.1798	25.2432	25.1164	32.9939	0.504117	0.24011	10.1496	-1
56	44.4534	Inf	0.000559731	25.1595	25.2194	25.0995	32.995	0.502974	0.248822	10.1497	-1
56.4	44.7827	Inf	0.000563736	25.1555	25.2167	25.0944	32.9944	0.503624	0.298344	10.1494	-1
56.8	45.1662	Inf	0.00056775	25.1819	25.2376	25.1263	32.9954	0.503839	0.212473	10.1491	-1
57.2	45.3905	Inf	0.000571744	25.1671	25.2393	25.0949	32.9957	0.50317	0.170847	10.1493	-1
57.6	45.8942	Inf	0.000575728	25.159	25.219	25.0991	32.9939	0.503866	0.175551	10.1494	-1
58	46.2117	Inf	0.000579729	25.1646	25.218	25.1113	32.9948	0.504379	0.219701	10.1492	-1
58.4	46.6103	Inf	0.000583719	25.1666	25.2262	25.107	32.9941	0.50431	0.259441	10.1497	-1
58.8	46.9629	Inf	0.000587696	25.1634	25.2273	25.0994	32.994	0.503146	0.300447	10.1493	-1
59.2	47.3758	Inf	0.000591726	25.1843	25.2453	25.1233	32.997	0.503195	0.301546	10.1493	-1
59.6	47.8649	Inf	0.000595729	25.1655	25.2242	25.1067	32.9959	0.50385	0.316824	10.1496	-1
60	48.1944	Inf	0.000599726	25.1522	25.2147	25.0898	32.9952	0.50335	0.277639	10.1495	-1
60.4	48.7783	Inf	0.000603721	25.1545	25.2074	25.1016	32.9938	0.503774	0.293502	10.1491	-1
60.8	49.0769	Inf	0.00060772	25.153	25.2155	25.0905	32.9957	0.503968	0.37773	10.1495	-1
61.2	49.4195	Inf	0.000611716	25.1665	25.2251	25.1079	32.9951	0.503308	0.373642	10.1495	-1
61.6	49.8325	Inf	0.000615725	25.1607	25.2237	25.0977	32.9948	0.503485	0.306602	10.1499	-1
62	50.1952	Inf	0.000619727	25.164	25.2226	25.1055	32.9937	0.503647	0.240021	10.1496	-1
62.4	50.6094	Inf	0.000623709	25.1713	25.2363	25.1063	32.9949	0.503324	0.222417	10.1491	-1
62.8	51.0245	Inf	0.000627716	25.1631	25.2391	25.0871	32.996	0.503972	0.259699	10.1495	-1
63.2	51.673	Inf	0.00063171	25.1687	25.2352	25.1022	32.9963	0.503999	0.338932	10.1494	-1
63.6	52.2428	Inf	0.000635706	25.1714	25.2421	25.1008	32.9947	0.504142	0.411641	10.1493	-1
64	52.8274	Inf	0.00063972	25.165	25.2296	25.1005	32.9953	0.504252	0.399923	10.1494	-1
64.4	53.3707	Inf	0.00064372	25.1708	25.2412	25.1004	32.9965	0.504167	0.363333	10.1496	-1
64.8	53.9948	Inf	0.000647708	25.1716	25.2435	25.0997	32.9942	0.50465	0.387257	10.1494	-1
65.2	54.481	Inf	0.000651707	25.1803	25.2259	25.1348	32.9947	0.504694	0.457374	10.1492	-1
65.6	55.0129	Inf	0.00065569	25.1667	25.2279	25.1056	32.9958	0.505175	0.505232	10.1497	-1
66	55.4142	Inf	0.000659706	25.1613	25.2183	25.1042	32.9962	0.503702	0.487179	10.1488	-1
66.4	55.8485	Inf	0.000663725	25.1604	25.2179	25.1028	32.9939	0.504302	0.502559	10.1496	-1
66.8	56.3246	Inf	0.000667699	25.1614	25.2191	25.1037	32.994	0.503032	0.471766	10.1496	-1
67.2	56.6861	Inf	0.000671691	25.1672	25.2224	25.112	32.9945	0.50408	0.524535	10.1495	-1
67.6	57.085	Inf	0.000675702	25.1763	25.235	25.1175	32.996	0.50373	0.499928	10.1496	-1
68	57.4742	Inf	0.000679697	25.1645	25.2259	25.103	32.9959	0.504122	0.617436	10.1496	-1
68.4	57.8836	Inf	0.000683712	25.1528	25.2179	25.0877	32.9943	0.504286	0.61378	10.1492	-1
68.8	58.2716	Inf	0.000687709	25.1515	25.1987	25.1043	32.9942	0.503527	0.666091	10.1496	-1
69.2	58.784	Inf	0.000691695	25.1702	25.2206	25.1198	32.9946	0.503491	0.589199	10.1499	-1
69.6	59.226	Inf	0.000695705	25.1587	25.2276	25.0898	32.9958	0.504512	0.61234	10.1495	-1
70	59.6857	Inf	0.000699695	25.153	25.2191	25.0869	32.9966	0.503872	0.600462	10.1493	-1
70.4	60.2005	Inf	0.000703707	25.1639	25.2218	25.106	32.9959	0.503589	0.662082	10.1492	-1
70.8	60.7016	Inf	0.000707709	25.1553	25.2154	25.0953	32.9957	0.503813	0.631627	10.1493	-1
71.2	61.1723	Inf	0.000711713	25.1602	25.2113	25.1092	32.9955	0.504472	0.598722	10.149	-1
71.6	61.7331	Inf	0.000715687	25.1613	25.2301	25.0925	32.9949	0.503933	0.656322	10.1492	-1
72	62.2181	Inf	0.000719697	25.1683	25.2408	25.0958	32.9956	0.503954	0.622151	10.1496	-1
72.4	62.5817	Inf	0.000723689	25.1631	25.2215	25.1048	32.9958	0.504035	0.617047	10.1495	-1
72.8	62.9944	Inf	0.000727677	25.1653	25.2284	25.1021	32.9957	0.504735	0.648389	10.1496	-1
73.2	63.5049	Inf	0.000731691	25.1713	25.2347	25.1079	32.9948	0.503866	0.737758	10.1489	-1
73.6	63.968	Inf	0.000735707	25.1551	25.2231	25.0871	32.996	0.504585	0.729954	10.1491	-1
74	64.3921	Inf	0.000739682	25.1428	25.206	25.0797	32.9958	0.504664	0.713081	10.1496	-1
74.4	64.8291	Inf	0.000743685	25.1797	25.233	25.1264	32.9951	0.503943	0.692443	10.1495	-1
74.8	65.0986	Inf	0.000747684	25.166	25.2258	25.1063	32.995	0.504282	0.735494	10.1489	-1
75.2	65.6076	Inf	0.00075168	25.161	25.2146	25.1074	32.9954	0.504451	0.782103	10.1494	-1
75.6	65.999	Inf	0.000755697	25.1687	25.2354	25.102	32.9966	0.504371	0.748608	10.149	-1
76	66.4629	Inf	0.000759686	25.1665	25.229	25.1039	32.9956	0.505074	0.719964	10.1498	-1
76.4	66.8972	Inf	0.00076368	25.1581	25.2178	25.0984	32.9947	0.503769	0.702477	10.1497	-1
76.8	67.1491	Inf	0.000767677	25.1646	25.22	25.1093	32.9957	0.503935	0.699294	10.1492	-1
77.2	67.5401	Inf	0.000771666	25.1722	25.2371	25.1073	32.9964	0.504722	0.760023	10.1494	-1
77.6	67.9799	Inf	0.000775682	25.1542	25.2089	25.0996	32.9954	0.5047	0.833305	10.1492	-1
78	68.4053	Inf	0.000779694	25.1687	25.2256	25.1118	32.9945	0.50463	0.844555	10.1498	-1
78.4	68.8544	Inf	0.000783675	25.1668	25.2308	25.1028	32.9944	0.504112	0.807191	10.149	-1
78.8	69.3491	Inf	0.00078771	25.1511	25.2103	25.0919	32.9954	0.504535	0.768411	10.1493	-1
79.2	69.7308	Inf	0.000791651	25.1602	25.2278	25.0925	32.9954	0.503119	0.775153	10.1488	-1
79.6	70.1588	Inf	0.000795664	25.1631	25.2198	25.1065	32.9955	0.504666	0.793506	10.149	-1
80	70.6657	Inf	0.000799668	25.1712	25.2258	25.1166	32.9965	0.503275	0.824773	10.1492	-1
80.4	71.1595	Inf	0.000803681	25.1466	25.2271	25.0662	32.9959	0.504443	0.845054	10.1492	-1
80.8	71.6586	Inf	0.000807681	25.1856	25.2454	25.1257	32.9956	0.504554	0.82648	10.149	-1
81.2	72.1752	Inf	0.000811684	25.1642	25.2157	25.1127	32.9952	0.503989	0.756876	10.1492	-1
81.6	72.6548	Inf	0.000815663	25.1776	25.2267	25.1285	32.9948	0.503821	0.730841	10.1494	-1
82	73.0965	Inf	0.000819639	25.1496	25.2008	25.0984	32.9958	0.504418	0.825734	10.1489	-1
82.4	73.5245	Inf	0.000823652	25.1611	25.2214	25.1008	32.9957	0.503528	0.905948	10.1492	-1
82.8	74.0659	Inf	0.000827664	25.1504	25.2137	25.0872	32.9946	0.504402	0.930845	10.1489	-1
83.2	74.4031	Inf	0.000831669	25.1555	25.2208	25.0903	32.9952	0.503526	0.893474	10.1491	-1
83.6	74.8609	Inf	0.000835667	25.163	25.2195	25.1065	32.9959	0.503355	0.867175	10.1489	-1
84	75.3688	Inf	0.000839654	25.171	25.2327	25.1093	32.9961	0.504344	0.898175	10.1487	-1
84.4	75.7802	Inf	0.000843694	25.1673	25.2217	25.1129	32.9948	0.503152	0.987141	10.1488	-1
84.8	76.2556	Inf	0.000847672	25.1473	25.2067	25.0878	32.9955	0.504022	0.942323	10.1494	-1
85.2	76.7219	Inf	0.000851668	25.1608	25.2123	25.1092	32.9958	0.504488	0.92947	10.1491	-1
85.6	77.1251	Inf	0.000855667	25.1668	25.2269	25.1066	32.9948	0.504261	0.909462	10.1487	-1
86	77.7023	Inf	0.000859665	25.1461	25.2072	25.085	32.9949	0.503529	0.912422	10.149	-1
86.4	78.1881	Inf	0.000863666	25.1689	25.2234	25.1145	32.9957	0.505054	0.850707	10.1491	-1
86.8	78.6619	Inf	0.000867659	25.1658	25.2286	25.103	32.997	0.504667	0.942149	10.1491	-1
87.2	79.1329	Inf	0.000871649	25.1456	25.2013	25.0899	32.9971	0.505443	0.986884	10.149	-1
87.6	79.649	Inf	0.000875666	25.148	25.2082	25.0878	32.9961	0.504167	0.999197	10.1492	-1
88	80.1054	Inf	0.000879675	25.1628	25.2289	25.0967	32.9962	0.504763	0.903063	10.149	-1
88.4	80.5516	Inf	0.000883668	25.1548	25.2254	25.0841	32.9959	0.504525	0.927551	10.1492	-1
88.8	81.1094	Inf	0.000887646	25.1539	25.2108	25.097	32.9957	0.505369	0.9394	10.149	-1
89.2	81.5896	Inf	0.000891656	25.1644	25.2202	25.1086	32.9959	0.504731	0.936495	10.1492	-1
89.6	82.0082	Inf	0.000895638	25.1654	25.236	25.0949	32.997	0.504778	0.929669	10.1489	-1
90	82.443	Inf	0.000899664	25.1535	25.2186	25.0883	32.9959	0.505105	0.898287	10.1494	-1
90.4	82.9233	Inf	0.000903664	25.1495	25.1951	25.1038	32.9963	0.504625	0.849692	10.149	-1
90.8	83.3254	Inf	0.000907636	25.1583	25.2053	25.1114	32.9957	0.504332	0.818179	10.1494	-1
91.2	83.7311	Inf	0.000911639	25.1649	25.2243	25.1055	32.9958	0.505403	0.797346	10.1491	-1
91.6	84.2029	Inf	0.000915647	25.1639	25.2287	25.0991	32.9969	0.504349	0.869874	10.1489	-1
92	84.6128	Inf	0.000919645	25.159	25.2128	25.1051	32.9957	0.504247	0.935614	10.1494	-1
92.4	85.0969	Inf	0.000923655	25.1599	25.2175	25.1022	32.9971	0.504068	0.94936	10.1492	-1
92.8	85.5541	Inf	0.000927629	25.1567	25.2163	25.0971	32.9951	0.504687	0.897488	10.149	-1
93.2	85.9204	Inf	0.000931633	25.1668	25.2214	25.1122	32.9956	0.504605	0.908321	10.1488	-1
93.6	86.2705	Inf	0.00093563	25.1573	25.2144	25.1003	32.995	0.503807	0.919489	10.1492	-1
94	86.6671	Inf	0.00093964	25.1551	25.2176	25.0926	32.9943	0.504631	0.924551	10.1492	-1
94.4	87.1295	Inf	0.000943608	25.175	25.2417	25.1082	32.9964	0.504737	0.944768	10.1489	-1
94.8	87.3722	Inf	0.000947673	25.1568	25.213	25.1006	32.9963	0.504251	0.901583	10.1492	-1
95.2	87.8977	Inf	0.000951657	25.1552	25.203	25.1074	32.9967	0.504807	0.837406	10.1493	-1
95.6	88.1556	Inf	0.000955632	25.1541	25.2119	25.0964	32.9973	0.504168	0.834987	10.1493	-1
96	88.5865	Inf	0.000959646	25.1612	25.2027	25.1196	32.9965	0.505298	0.797842	10.1497	-1
96.4	88.9492	Inf	0.000963633	25.1521	25.2092	25.095	32.9966	0.504683	0.786817	10.1491	-1
96.8	89.1036	Inf	0.000967645	25.1607	25.2184	25.1031	32.9947	0.504993	0.790868	10.1487	-1
97.2	89.608	Inf	0.000971656	25.1588	25.2087	25.1089	32.9954	0.504935	0.790553	10.1491	-1
97.6	89.8599	Inf	0.000975617	25.1551	25.2145	25.0957	32.9964	0.504161	0.781535	10.1489	-1
98	90.2743	Inf	0.000979641	25.129	25.1788	25.0793	32.9962	0.504103	0.750182	10.1493	-1
98.4	90.4831	Inf	0.000983629	25.1859	25.2418	25.1301	32.9977	0.503666	0.778429	10.1491	-1
98.8	90.7653	Inf	0.000987635	25.148	25.2154	25.0805	32.9959	0.505087	0.796482	10.149	-1
99.2	91.0137	Inf	0.000991659	25.1537	25.2114	25.096	32.9967	0.504467	0.839313	10.1489	-1
99.6	91.4884	Inf	0.000995625	25.1622	25.207	25.1173	32.9975	0.50492	0.848355	10.149	-1
100	91.6204	Inf	0.00099963	25.172	25.2324	25.1116	32.9952	0.505342	0.762014	10.1489	-1
100.4	92.0507	Inf	0.00100364	25.1459	25.2029	25.089	32.995	0.504822	0.738042	10.1492	-1
100.8	92.2718	Inf	0.00100762	25.1742	25.2393	25.109	32.9965	0.504452	0.788087	10.1487	-1
101.2	92.5304	Inf	0.00101162	25.1511	25.2162	25.0861	32.9964	0.503532	0.847332	10.1486	-1
101.6	92.787	Inf	0.00101565	25.1602	25.2066	25.1139	32.9971	0.505369	0.855754	10.1492	-1
102	93.0459	Inf	0.00101961	25.1523	25.2257	25.0789	32.9961	0.504222	0.845987	10.149	-1
102.4	93.375	Inf	0.00102363	25.1684	25.2267	25.1101	32.9961	0.504854	0.816538	10.149	-1
102.8	93.4122	Inf	0.00102764	25.1759	25.2471	25.1047	32.9972	0.503858	0.802332	10.1491	-1
103.2	93.8385	Inf	0.00103159	25.1546	25.2163	25.0928	32.9969	0.504236	0.789678	10.1493	-1
103.6	94.1406	Inf	0.00103566	25.1563	25.2125	25.1002	32.9959	0.504802	0.7718	10.1493	-1
104	94.273	Inf	0.00103964	25.1577	25.2192	25.0962	32.9965	0.504853	0.802745	10.1493	-1
104.4	94.4969	Inf	0.00104362	25.1451	25.2113	25.0789	32.9955	0.505045	0.820111	10.149	-1
104.8	94.8072	Inf	0.00104763	25.1412	25.1924	25.09	32.9946	0.504868	0.734018	10.1494	-1
105.2	94.9593	Inf	0.00105165	25.1594	25.2231	25.0957	32.9965	0.50272	0.701184	10.1495	-1
105.6	95.0739	Inf	0.00105559	25.1446	25.2075	25.0816	32.996	0.50435	0.706557	10.1494	-1
106	95.2757	Inf	0.00105964	25.1458	25.2119	25.0797	32.9964	0.503821	0.743477	10.149	-1
106.4	95.5323	Inf	0.00106364	25.1616	25.2202	25.1029	32.9976	0.504952	0.769372	10.1492	-1
106.8	95.654	Inf	0.00106761	25.1487	25.2145	25.0829	32.9954	0.505483	0.743079	10.1491	-1
107.2	95.7232	Inf	0.00107165	25.1487	25.203	25.0943	32.9976	0.505793	0.740662	10.1488	-1
107.6	95.9959	Inf	0.00107563	25.1604	25.2277	25.0931	32.9985	0.504942	0.716288	10.1492	-1
108	96.1912	Inf	0.00107961	25.1537	25.2081	25.0993	32.9946	0.504847	0.734108	10.1489	-1
108.4	96.3096	Inf	0.00108364	25.1532	25.2092	25.0973	32.9947	0.504988	0.743206	10.1491	-1
108.8	96.4344	Inf	0.00108761	25.15	25.2034	25.0965	32.9958	0.504402	0.76525	10.1491	-1
109.2	96.6035	Inf	0.00109163	25.1582	25.226	25.0904	32.9953	0.505163	0.736109	10.1491	-1
109.6	96.7161	Inf	0.00109563	25.1558	25.219	25.0926	32.9952	0.504701	0.679893	10.1491	-1
110	96.9262	Inf	0.00109957	25.1584	25.2164	25.1003	32.9951	0.504287	0.704588	10.1489	-1
110.4	97.0677	Inf	0.00110362	25.1509	25.2042	25.0975	32.9956	0.504567	0.729671	10.1491	-1
110.8	97.2651	Inf	0.00110761	25.1688	25.2378	25.0997	32.9966	0.504925	0.796999	10.1492	-1
111.2	97.2748	Inf	0.0011116	25.1495	25.2118	25.0873	32.9968	0.504027	0.799047	10.1491	-1
111.6	97.3419	Inf	0.00111563	25.1502	25.2085	25.092	32.9959	0.505517	0.77203	10.149	-1
112	97.4711	Inf	0.00111962	25.1498	25.2187	25.0809	32.9961	0.504716	0.689906	10.1488	-1
112.4	97.4829	Inf	0.00112364	25.1475	25.2163	25.0788	32.996	0.504926	0.661498	10.1489	-1
112.8	97.5834	Inf	0.00112762	25.1424	25.1974	25.0873	32.9956	0.504051	0.689373	10.149	-1
113.2	97.667	Inf	0.00113156	25.152	25.2159	25.088	32.9971	0.504471	0.706202	10.1495	-1
113.6	97.8047	Inf	0.00113555	25.1519	25.2157	25.0882	32.9964	0.504171	0.717179	10.1492	-1
114	97.771	Inf	0.00113962	25.1559	25.2231	25.0886	32.9969	0.50474	0.662712	10.1489	-1
114.4	97.868	Inf	0.00114355	25.1721	25.2302	25.1141	32.9961	0.505029	0.649038	10.1491	-1
114.8	97.8478	Inf	0.00114755	25.1505	25.2125	25.0885	32.9953	0.505323	0.62312	10.1492	-1
115.2	97.9746	Inf	0.0011516	25.1379	25.1881	25.0878	32.9958	0.504834	0.646968	10.1493	-1
115.6	97.9544	Inf	0.00115553	25.1668	25.225	25.1087	32.9949	0.505131	0.716395	10.1493	-1
116	98.0551	Inf	0.00115956	25.1585	25.216	25.101	32.9957	0.504519	0.741544	10.149	-1
116.4	98.0401	Inf	0.00116357	25.1557	25.2154	25.0961	32.9967	0.50501	0.716824	10.1489	-1
116.8	98.0135	Inf	0.00116755	25.1471	25.2126	25.0816	32.9964	0.504838	0.652278	10.1491	-1
117.2	98.0913	Inf	0.0011716	25.1597	25.2278	25.0915	32.9966	0.50462	0.682765	10.1487	-1
117.6	98.0296	Inf	0.00117556	25.1583	25.2233	25.0932	32.9964	0.505043	0.701784	10.1489	-1
118	97.9918	Inf	0.00117955	25.1464	25.2176	25.0751	32.9963	0.505013	0.719858	10.1492	-1
118.4	97.9995	Inf	0.00118356	25.1611	25.2238	25.0984	32.9957	0.50542	0.719339	10.1493	-1
118.8	98	Inf	0.00118754	25.1513	25.2115	25.0911	32.9967	0.504356	0.700036	10.149	-1
119.2	97.9962	Inf	0.00119154	25.1421	25.2089	25.0752	32.9958	0.505462	0.63847	10.1489	-1
119.6	97.9931	Inf	0.00119558	25.1584	25.2259	25.0909	32.9977	0.504882	0.617766	10.149	-1
120	97.9469	Inf	0.00119955	25.1522	25.2104	25.094	32.9956	0.505165	0.659854	10.149	-1
120.4	97.9759	Inf	0.00120353	25.1382	25.2054	25.071	32.9969	0.505417	0.678032	10.149	-1
120.8	97.9106	Inf	0.00120755	25.1585	25.2285	25.0885	32.9969	0.505768	0.678718	10.149	-1
121.2	97.7824	Inf	0.00121153	25.1738	25.2312	25.1163	32.9979	0.504644	0.666766	10.1489	-1
121.6	97.8783	Inf	0.00121554	25.1527	25.2081	25.0973	32.9968	0.505799	0.605741	10.1495	-1
122	97.89	Inf	0.00121959	25.159	25.2219	25.0961	32.9971	0.50514	0.583008	10.1491	-1
122.4	97.8341	Inf	0.00122352	25.1418	25.2045	25.0791	32.9962	0.504737	0.639091	10.1493	-1
122.8	97.6826	Inf	0.00122753	25.1463	25.2108	25.0819	32.9953	0.504992	0.663362	10.1491	-1
123.2	97.717	Inf	0.00123155	25.1572	25.2054	25.109	32.9976	0.50558	0.636385	10.1492	-1
123.6	97.6412	Inf	0.00123552	25.1649	25.2203	25.1094	32.9948	0.504942	0.604275	10.1492	-1
124	97.569	Inf	0.00123952	25.1553	25.2158	25.0949	32.996	0.505089	0.5843	10.1491	-1
124.4	97.6285	Inf	0.00124352	25.1596	25.2091	25.1101	32.9964	0.50559	0.577173	10.1492	-1
124.8	97.4798	Inf	0.00124751	25.1605	25.2317	25.0893	32.9961	0.504739	0.609975	10.1493	-1
125.2	97.5195	Inf	0.00125152	25.1371	25.1993	25.0749	32.9946	0.5049	0.666473	10.1492	-1
125.6	97.4616	Inf	0.00125553	25.1544	25.2216	25.0871	32.9967	0.505421	0.661118	10.1492	-1
126	97.4178	Inf	0.00125952	25.1539	25.2249	25.0828	32.9986	0.5042	0.629405	10.1492	-1
126.4	97.4687	Inf	0.00126354	25.1561	25.2303	25.082	32.9999	0.506276	0.607908	10.1491	-1
126.8	97.4198	Inf	0.0012675	25.1566	25.2189	25.0943	32.9972	0.504536	0.626331	10.1492	-1
127.2	97.4342	Inf	0.00127154	25.1536	25.2361	25.0711	32.9962	0.504509	0.645822	10.1495	-1
127.6	97.2631	Inf	0.00127553	25.1253	25.1864	25.0641	32.9965	0.504929	0.607968	10.1494	-1
128	97.1646	Inf	0.00127952	25.1392	25.2272	25.0513	32.995	0.505317	0.596266	10.1495	-1
128.4	97.0589	Inf	0.00128352	25.1404	25.2007	25.0801	32.9956	0.505171	0.555108	10.1493	-1
128.8	97.1288	Inf	0.00128752	25.1511	25.2187	25.0835	32.9952	0.504828	0.505171	10.1492	-1
129.2	97.0042	Inf	0.00129154	25.158	25.2246	25.0914	32.9966	0.505099	0.492284	10.149	-1
129.6	97.0162	Inf	0.0012955	25.1442	25.2087	25.0797	32.9972	0.504369	0.521991	10.1489	-1
130	97.0469	Inf	0.00129952	25.1362	25.1772	25.0952	32.9961	0.505661	0.559158	10.149	-1
130.4	96.9023	Inf	0.00130351	25.148	25.2196	25.0764	32.9982	0.504797	0.580198	10.1488	-1
130.8	96.9116	Inf	0.00130753	25.1415	25.217	25.066	32.9966	0.505512	0.53466	10.1491	-1
131.2	96.8005	Inf	0.00131151	25.148	25.1985	25.0974	32.996	0.505109	0.49026	10.1489	-1
131.6	96.852	Inf	0.0013155	25.1623	25.2116	25.113	32.9968	0.504214	0.475039	10.1491	-1
132	96.8101	Inf	0.0013195	25.1545	25.226	25.0831	32.9952	0.504881	0.474274	10.149	-1
132.4	96.8131	Inf	0.00132352	25.1454	25.1963	25.0944	32.9972	0.504764	0.529805	10.1487	-1
132.8	96.818	Inf	0.00132752	25.1471	25.2053	25.0889	32.997	0.505049	0.516808	10.1491	-1
133.2	96.547	Inf	0.00133155	25.1373	25.2145	25.0601	32.9954	0.504783	0.496517	10.1488	-1
133.6	96.5714	Inf	0.0013355	25.1702	25.2398	25.1006	32.9966	0.504538	0.486578	10.1491	-1
134	96.452	Inf	0.00133949	25.1517	25.2162	25.0872	32.9961	0.505319	0.477868	10.149	-1
134.4	96.3752	Inf	0.00134353	25.1526	25.2182	25.0871	32.9963	0.505383	0.534868	10.1491	-1
134.8	96.2866	Inf	0.0013475	25.1408	25.2086	25.0731	32.998	0.504243	0.597032	10.149	-1
135.2	96.1796	Inf	0.00135151	25.1574	25.2198	25.0951	32.9968	0.505828	0.604827	10.1493	-1
135.6	96.1823	Inf	0.00135553	25.1408	25.2037	25.0779	32.9973	0.505314	0.569584	10.1486	-1
136	95.956	Inf	0.00135949	25.1557	25.2137	25.0977	32.9966	0.504598	0.544435	10.1492	-1
136.4	95.9941	Inf	0.0013635	25.1493	25.2056	25.0929	32.9974	0.504864	0.570797	10.1494	-1
136.8	95.8499	Inf	0.00136749	25.139	25.1993	25.0786	32.9972	0.504654	0.574702	10.1489	-1
137.2	95.847	Inf	0.00137148	25.1669	25.2315	25.1023	32.9963	0.505399	0.634898	10.1488	-1
137.6	95.8023	Inf	0.00137551	25.1546	25.2154	25.0938	32.9956	0.505253	0.597956	10.1486	-1
138	95.6381	Inf	0.00137951	25.1369	25.1931	25.0807	32.9966	0.504763	0.539177	10.1487	-1
138.4	95.5471	Inf	0.00138349	25.1451	25.197	25.0931	32.9973	0.505175	0.497807	10.1488	-1
138.8	95.4751	Inf	0.00138748	25.1577	25.2114	25.104	32.9969	0.505373	0.529522	10.1488	-1
139.2	95.384	Inf	0.00139152	25.1382	25.1904	25.086	32.9966	0.50474	0.607049	10.1489	-1
139.6	95.2328	Inf	0.00139547	25.1426	25.2035	25.0816	32.9967	0.504744	0.597404	10.1486	-1
140	95.2509	Inf	0.0013995	25.1536	25.2173	25.0899	32.9957	0.505187	0.613112	10.149	-1
140.4	95.023	Inf	0.00140352	25.1576	25.2255	25.0898	32.9978	0.505917	0.555564	10.149	-1
140.8	94.9369	Inf	0.00140749	25.1384	25.2023	25.0745	32.9975	0.505291	0.519647	10.1489	-1
141.2	94.9338	Inf	0.00141148	25.149	25.2117	25.0863	32.9964	0.505291	0.53287	10.1488	-1
141.6	94.7526	Inf	0.00141552	25.1491	25.2174	25.0809	32.9965	0.505012	0.57905	10.1494	-1
142	94.7312	Inf	0.00141949	25.1575	25.2045	25.1105	32.9959	0.505288	0.617853	10.1489	-1
142.4	94.6602	Inf	0.00142352	25.1512	25.2022	25.1002	32.9961	0.505143	0.606075	10.149	-1
142.8	94.5847	Inf	0.00142756	25.1499	25.2017	25.0982	32.9968	0.505446	0.581437	10.1494	-1
143.2	94.4951	Inf	0.00143148	25.1451	25.2105	25.0798	32.9966	0.504351	0.566268	10.1492	-1
143.6	94.5276	Inf	0.00143551	25.1605	25.2164	25.1047	32.9976	0.504867	0.594741	10.1491	-1
144	94.2665	Inf	0.00143953	25.1592	25.2341	25.0843	32.9968	0.505681	0.632951	10.1488	-1
144.4	94.2654	Inf	0.00144351	25.1684	25.2187	25.1181	32.9977	0.504809	0.662096	10.1488	-1
144.8	94.1668	Inf	0.00144756	25.1478	25.1898	25.1058	32.9964	0.504097	0.628119	10.149	-1
145.2	94.1519	Inf	0.00145153	25.1636	25.2182	25.1089	32.9967	0.504794	0.607914	10.1491	-1
145.6	94.2142	Inf	0.00145557	25.1387	25.2072	25.0702	32.9964	0.505189	0.551237	10.1488	-1
146	94.0892	Inf	0.00145954	25.1546	25.2148	25.0944	32.9952	0.505139	0.533848	10.149	-1
146.4	94.0605	Inf	0.0014635	25.14	25.1836	25.0965	32.9972	0.505722	0.561934	10.149	-1
146.8	93.964	Inf	0.00146756	25.1532	25.2197	25.0866	32.9972	0.50445	0.538841	10.1488	-1
147.2	93.9311	Inf	0.0014715	25.1385	25.201	25.0761	32.9956	0.504509	0.524299	10.1489	-1
147.6	93.9405	Inf	0.00147548	25.1481	25.2203	25.0758	32.998	0.504694	0.48325	10.1489	-1
148	93.829	Inf	0.00147953	25.1607	25.2214	25.1	32.9966	0.504756	0.472618	10.1487	-1
148.4	93.7011	Inf	0.00148352	25.145	25.202	25.088	32.9966	0.504167	0.488753	10.1491	-1
148.8	93.6345	Inf	0.00148748	25.1533	25.2052	25.1013	32.9963	0.505031	0.478501	10.1489	-1
149.2	93.6093	Inf	0.00149153	25.166	25.2159	25.116	32.9966	0.505669	0.550859	10.1489	-1
149.6	93.5774	Inf	0.00149554	25.159	25.2233	25.0947	32.9986	0.505668	0.601524	10.1492	-1
150	93.6687	Inf	0.00149949	25.1539	25.219	25.0887	32.9976	0.505617	0.555523	10.149	-1
150.4	93.5651	Inf	0.00150354	25.1511	25.2132	25.089	32.9964	0.504384	0.530759	10.1489	-1
150.8	93.4494	Inf	0.00150754	25.1647	25.2226	25.1068	32.9975	0.504589	0.530927	10.1489	-1
151.2	93.4748	Inf	0.00151154	25.1572	25.2033	25.1111	32.9978	0.505876	0.536697	10.1493	-1
151.6	93.4945	Inf	0.00151553	25.1295	25.1969	25.0621	32.9951	0.506505	0.553694	10.1489	-1
152	93.2851	Inf	0.00151955	25.1539	25.2091	25.0987	32.996	0.504729	0.533994	10.1487	-1
152.4	93.366	Inf	0.00152355	25.1392	25.204	25.0744	32.9967	0.505895	0.438087	10.149	-1
152.8	93.231	Inf	0.00152755	25.1412	25.201	25.0814	32.9954	0.50522	0.461273	10.1488	-1
153.2	93.1734	Inf	0.00153153	25.1523	25.2241	25.0805	32.9992	0.506444	0.482666	10.1491	-1
153.6	93.1616	Inf	0.00153553	25.1509	25.2041	25.0977	32.9975	0.506763	0.521248	10.1491	-1
154	93.2106	Inf	0.00153954	25.1527	25.2173	25.088	32.9974	0.505799	0.482159	10.1493	-1
154.4	93.0921	Inf	0.00154356	25.1426	25.2155	25.0696	32.998	0.505952	0.511585	10.1489	-1
154.8	93.2252	Inf	0.00154755	25.1494	25.2004	25.0983	32.998	0.505813	0.460351	10.1491	-1
155.2	92.9668	Inf	0.00155155	25.138	25.2087	25.0673	32.9972	0.505162	0.415298	10.1492	-1
155.6	92.9908	Inf	0.00155554	25.1527	25.2172	25.0883	32.9984	0.505938	0.405224	10.1489	-1
156	92.9332	Inf	0.00155955	25.1515	25.201	25.102	32.9983	0.505011	0.432488	10.1493	-1
156.4	92.9893	Inf	0.00156355	25.1437	25.1941	25.0933	32.9964	0.504368	0.399543	10.1491	-1
156.8	92.8895	Inf	0.00156754	25.14	25.1853	25.0947	32.996	0.505624	0.411122	10.1493	-1
157.2	92.9052	Inf	0.00157155	25.1485	25.2098	25.0872	32.9974	0.505572	0.349086	10.149	-1
157.6	92.8417	Inf	0.00157552	25.1501	25.2072	25.0931	32.997	0.505144	0.359167	10.1489	-1
158	92.8091	Inf	0.00157952	25.1399	25.1905	25.0892	32.9972	0.505591	0.360512	10.1488	-1
158.4	92.815	Inf	0.00158352	25.1579	25.2203	25.0956	32.9969	0.505597	0.425343	10.1487	-1
158.8	92.755	Inf	0.00158755	25.1555	25.2142	25.0968	32.9961	0.505197	0.442865	10.149	-1
159.2	92.7058	Inf	0.00159153	25.136	25.2015	25.0706	32.9978	0.504723	0.440962	10.149	-1
159.6	92.7399	Inf	0.00159553	25.1405	25.19	25.0911	32.9968	0.505883	0.427326	10.1487	-1
160	92.6808	Inf	0.00159954	25.1516	25.209	25.0942	32.9968	0.504889	0.397012	10.1492	-1
160.4	92.7186	Inf	0.00160353	25.1549	25.2139	25.0959	32.9976	0.505653	0.423401	10.1489	-1
160.8	92.666	Inf	0.00160756	25.1469	25.2085	25.0853	32.998	0.505811	0.440437	10.1491	-1
161.2	92.6892	Inf	0.00161156	25.1631	25.22	25.1063	32.9969	0.506019	0.467753	10.1489	-1
161.6	92.6987	Inf	0.00161554	25.1547	25.2178	25.0916	32.997	0.505452	0.429356	10.1491	-1
162	92.7018	Inf	0.00161953	25.1348	25.1954	25.0742	32.998	0.505986	0.366186	10.1488	-1
162.4	92.5604	Inf	0.00162354	25.1476	25.2031	25.092	32.9964	0.505211	0.372698	10.1489	-1
162.8	92.6369	Inf	0.00162752	25.1438	25.2078	25.0798	32.9979	0.505188	0.353564	10.1491	-1
163.2	92.5728	Inf	0.00163153	25.1522	25.2116	25.0929	32.9973	0.505517	0.424499	10.149	-1
163.6	92.5256	Inf	0.00163552	25.1579	25.2134	25.1025	32.9973	0.505394	0.419354	10.149	-1
164	92.5638	Inf	0.00163955	25.153	25.2081	25.0979	32.997	0.506004	0.375713	10.1489	-1
164.4	92.5369	Inf	0.00164353	25.143	25.2005	25.0855	32.9977	0.505611	0.397049	10.1491	-1
164.8	92.5417	Inf	0.00164752	25.1452	25.2079	25.0825	32.9982	0.506353	0.340748	10.1492	-1
165.2	92.5014	Inf	0.00165152	25.1579	25.2175	25.0983	32.9973	0.505562	0.400783	10.149	-1
165.6	92.5817	Inf	0.00165551	25.1481	25.208	25.0883	32.9965	0.505735	0.442288	10.1491	-1
166	92.5719	Inf	0.00165952	25.1447	25.1987	25.0907	32.9966	0.505899	0.435009	10.149	-1
166.4	92.5468	Inf	0.00166353	25.1535	25.2101	25.0968	32.9974	0.505036	0.418936	10.1488	-1
166.8	92.581	Inf	0.00166752	25.1531	25.2026	25.1036	32.997	0.505764	0.370588	10.1488	-1
167.2	92.4712	Inf	0.00167153	25.1476	25.2003	25.0948	32.9979	0.505982	0.348006	10.1488	-1
167.6	92.3375	Inf	0.00167551	25.1413	25.1954	25.0873	32.9971	0.505977	0.398647	10.1487	-1
168	92.5071	Inf	0.00167952	25.1521	25.2083	25.0959	32.9984	0.505894	0.469446	10.149	-1
168.4	92.4024	Inf	0.00168352	25.143	25.2033	25.0828	32.9963	0.505358	0.499795	10.1489	-1
168.8	92.4339	Inf	0.00168752	25.1514	25.2128	25.09	32.9973	0.505847	0.505134	10.149	-1
169.2	92.4132	Inf	0.00169152	25.1568	25.2003	25.1133	32.9973	0.505615	0.470845	10.1491	-1
169.6	92.3441	Inf	0.00169554	25.1478	25.195	25.1006	32.9965	0.505499	0.399792	10.1487	-1
170	92.374	Inf	0.00169952	25.1332	25.182	25.0845	32.9951	0.505459	0.445659	10.1488	-1
170.4	92.3002	Inf	0.00170349	25.1396	25.2113	25.068	32.9963	0.504582	0.475205	10.1488	-1
170.8	92.3479	Inf	0.00170751	25.1479	25.2008	25.0951	32.9962	0.504826	0.474173	10.1487	-1
171.2	92.3722	Inf	0.00171152	25.1366	25.2002	25.0731	32.9985	0.504996	0.459159	10.1495	-1
171.6	92.3474	Inf	0.00171552	25.1433	25.2029	25.0838	32.9976	0.506062	0.365384	10.149	-1
172	92.4171	Inf	0.00171951	25.1538	25.2068	25.1009	32.998	0.504867	0.36728	10.1489	-1
172.4	92.3596	Inf	0.00172352	25.1421	25.1896	25.0947	32.9981	0.505412	0.44185	10.1486	-1
172.8	92.3522	Inf	0.00172748	25.1433	25.1932	25.0934	32.9964	0.505195	0.447631	10.1492	-1
173.2	92.469	Inf	0.00173152	25.1384	25.2064	25.0703	32.998	0.506821	0.464692	10.1491	-1
173.6	92.3202	Inf	0.00173552	25.1403	25.2133	25.0673	32.9964	0.506942	0.400478	10.1487	-1
174	92.2988	Inf	0.00173951	25.1315	25.2079	25.0551	32.997	0.505154	0.38598	10.1489	-1
174.4	92.2761	Inf	0.0017435	25.1686	25.2319	25.1053	32.9963	0.505677	0.375469	10.1487	-1
174.8	92.2931	Inf	0.00174749	25.1706	25.2118	25.1295	32.9988	0.504977	0.447975	10.1489	-1
175.2	92.2678	Inf	0.00175149	25.1291	25.1757	25.0825	32.9977	0.505739	0.473417	10.1491	-1
175.6	92.3692	Inf	0.00175548	25.1252	25.1745	25.076	32.9966	0.505348	0.490095	10.1488	-1
176	92.5398	Inf	0.00175954	25.155	25.2101	25.0999	32.9967	0.505727	0.405948	10.1492	-1
176.4	92.4194	Inf	0.00176351	25.1551	25.2093	25.1008	32.9981	0.505447	0.401314	10.1491	-1
176.8	92.4208	Inf	0.00176752	25.1369	25.1973	25.0764	32.9968	0.50615	0.405023	10.1491	-1
177.2	92.3346	Inf	0.00177149	25.1575	25.2156	25.0993	32.9973	0.505278	0.45151	10.1492	-1
177.6	92.4187	Inf	0.00177548	25.1457	25.2108	25.0807	32.9982	0.506136	0.526378	10.1495	-1
178	92.335	Inf	0.0017795	25.141	25.2013	25.0807	32.9983	0.506006	0.52426	10.1488	-1
178.4	92.3346	Inf	0.00178351	25.1517	25.2067	25.0968	32.9986	0.506339	0.488824	10.149	-1
178.8	92.3218	Inf	0.00178752	25.1515	25.2105	25.0924	32.9978	0.505702	0.444513	10.149	-1
179.2	92.432	Inf	0.00179151	25.1511	25.2103	25.0918	32.9973	0.506644	0.434059	10.1488	-1
179.6	92.4159	Inf	0.00179548	25.1342	25.1974	25.0711	32.9968	0.50631	0.458942	10.149	-1
180	92.3952	Inf	0.00179949	25.1438	25.2082	25.0795	32.9973	0.506013	0.456188	10.1491	-1
180.4	92.3781	Inf	0.0018035	25.1394	25.2043	25.0745	32.9979	0.506058	0.452314	10.1491	-1
180.8	92.4637	Inf	0.00180749	25.1448	25.1872	25.1025	32.9979	0.506064	0.397499	10.1491	-1
181.2	92.623	Inf	0.00181148	25.1487	25.209	25.0884	32.998	0.505411	0.410236	10.1491	-1
181.6	92.5702	Inf	0.00181547	25.1524	25.2116	25.0932	32.9983	0.506212	0.342277	10.1492	-1
182	92.6686	Inf	0.00181949	25.1446	25.209	25.0801	32.998	0.505525	0.424603	10.1491	-1
182.4	92.5881	Inf	0.00182348	25.1491	25.2049	25.0933	32.998	0.505746	0.508936	10.1491	-1
182.8	92.5916	Inf	0.00182748	25.1467	25.2048	25.0886	32.9984	0.505844	0.516513	10.149	-1
183.2	92.5977	Inf	0.0018315	25.1396	25.1991	25.08	32.9993	0.507007	0.515372	10.1491	-1
183.6	92.6465	Inf	0.00183549	25.1348	25.201	25.0686	32.9983	0.506726	0.460669	10.1487	-1
184	92.7479	Inf	0.00183947	25.1481	25.2182	25.078	32.9958	0.505869	0.487509	10.1489	-1
184.4	92.6272	Inf	0.00184347	25.1391	25.196	25.0822	32.9976	0.505856	0.534845	10.149	-1
184.8	92.6832	Inf	0.00184748	25.1444	25.1979	25.0908	32.9986	0.505883	0.505295	10.149	-1
185.2	92.7213	Inf	0.00185148	25.1545	25.2109	25.0981	32.9983	0.506518	0.454269	10.1491	-1
185.6	92.6923	Inf	0.00185547	25.1418	25.196	25.0875	32.9972	0.506118	0.491123	10.149	-1
186	92.7234	Inf	0.00185949	25.1447	25.2101	25.0793	32.9973	0.506117	0.407051	10.1488	-1
186.4	92.7619	Inf	0.00186347	25.1593	25.2072	25.1113	32.9985	0.505964	0.410827	10.149	-1
186.8	92.7944	Inf	0.00186748	25.1538	25.2118	25.0958	32.9969	0.506048	0.504966	10.149	-1
187.2	92.7464	Inf	0.00187147	25.1407	25.2017	25.0797	32.9981	0.50669	0.53091	10.1489	-1
187.6	92.7228	Inf	0.00187547	25.1482	25.2043	25.0921	32.9974	0.505734	0.558159	10.1487	-1
188	92.865	Inf	0.00187948	25.1519	25.2201	25.0837	32.998	0.506852	0.479359	10.1488	-1
188.4	92.7958	Inf	0.00188349	25.1351	25.201	25.0691	32.998	0.50564	0.481018	10.149	-1
188.8	92.8506	Inf	0.00188745	25.1451	25.2056	25.0847	32.9978	0.506313	0.505217	10.149	-1
189.2	92.7674	Inf	0.00189147	25.1526	25.2124	25.0928	32.9977	0.506068	0.531075	10.149	-1
189.6	92.879	Inf	0.00189545	25.1437	25.2022	25.0852	32.9985	0.505354	0.574382	10.1489	-1
190	92.8107	Inf	0.00189947	25.1368	25.1971	25.0766	32.997	0.505459	0.486099	10.1489	-1
190.4	92.9595	Inf	0.00190348	25.1576	25.2089	25.1064	32.9969	0.506398	0.471593	10.1491	-1
190.8	92.9958	Inf	0.00190747	25.1508	25.2119	25.0897	32.9991	0.50565	0.479789	10.149	-1
191.2	92.8777	Inf	0.00191148	25.1371	25.1894	25.0847	32.9988	0.506206	0.448595	10.1488	-1
191.6	92.95	Inf	0.00191547	25.1389	25.2032	25.0747	32.9971	0.505921	0.482026	10.1488	-1
192	93.0115	Inf	0.00191948	25.1526	25.2158	25.0894	32.9976	0.506576	0.550787	10.1485	-1
192.4	93.0485	Inf	0.00192345	25.1418	25.2058	25.0778	32.9975	0.506457	0.545036	10.1487	-1
192.8	92.9781	Inf	0.00192747	25.1313	25.1969	25.0657	32.9979	0.506337	0.537156	10.1487	-1
193.2	93.0312	Inf	0.00193146	25.1495	25.2049	25.0941	32.9987	0.506001	0.508511	10.1487	-1
193.6	93.109	Inf	0.00193544	25.1606	25.2141	25.1072	32.9968	0.506111	0.556713	10.1489	-1
194	93.1223	Inf	0.00193948	25.1358	25.1967	25.075	32.9983	0.505718	0.589236	10.1488	-1
194.4	93.2087	Inf	0.00194346	25.1512	25.2015	25.101	32.9977	0.506382	0.581791	10.1489	-1
194.8	93.1092	Inf	0.0019475	25.1512	25.2007	25.1017	32.9987	0.506063	0.569546	10.1486	-1
195.2	93.2539	Inf	0.00195147	25.1434	25.2014	25.0854	32.9972	0.506653	0.514109	10.1488	-1
195.6	93.3212	Inf	0.00195544	25.137	25.2054	25.0686	32.9994	0.506017	0.477753	10.1488	-1
196	93.2827	Inf	0.00195944	25.1482	25.2119	25.0846	32.9977	0.505749	0.472656	10.1491	-1
196.4	93.2751	Inf	0.00196346	25.1426	25.2028	25.0825	32.9979	0.505827	0.494878	10.1487	-1
196.8	93.3454	Inf	0.00196745	25.1436	25.1963	25.0908	32.9975	0.507219	0.529226	10.1487	-1
197.2	93.466	Inf	0.00197145	25.1554	25.2071	25.1036	32.9969	0.506267	0.508641	10.1489	-1
197.6	93.4502	Inf	0.00197549	25.1518	25.2116	25.092	32.9976	0.506194	0.488117	10.149	-1
198	93.5206	Inf	0.00197944	25.1387	25.1901	25.0873	32.9978	0.505626	0.464705	10.1486	-1
198.4	93.5766	Inf	0.00198348	25.1533	25.21	25.0966	32.9982	0.505395	0.465692	10.1486	-1
198.8	93.4899	Inf	0.00198744	25.1439	25.2044	25.0834	32.9985	0.5062	0.534743	10.1489	-1
199.2	93.6578	Inf	0.00199147	25.1378	25.192	25.0835	33.0003	0.50673	0.530756	10.1486	-1
199.6	93.605	Inf	0.00199549	25.1319	25.1936	25.0702	32.9968	0.506809	0.52198	10.1487	-1
200	93.7181	Inf	0.00199944	25.1493	25.2112	25.0875	32.999	0.506096	0.474564	10.1486	-1
200.4	93.6514	Inf	0.00200342	25.1495	25.2092	25.0897	32.9976	0.506237	0.465226	10.1486	-1
200.8	93.7316	Inf	0.00200745	25.1332	25.1872	25.0792	32.9994	0.505522	0.451788	10.1491	-1
201.2	93.7829	Inf	0.00201143	25.1542	25.2116	25.0967	32.9992	0.505758	0.508587	10.1489	-1
201.6	93.6945	Inf	0.00201544	25.1398	25.205	25.0745	32.9993	0.505771	0.546175	10.1489	-1
202	93.8	Inf	0.00201947	25.1312	25.2046	25.0577	32.9986	0.506492	0.551286	10.149	-1
202.4	93.8583	Inf	0.00202345	25.1331	25.1875	25.0786	32.9981	0.506852	0.479445	10.149	-1
202.8	93.9305	Inf	0.00202746	25.1528	25.2111	25.0944	32.9983	0.507081	0.483595	10.1486	-1
203.2	93.9519	Inf	0.00203141	25.1393	25.1956	25.0831	32.9981	0.505489	0.479381	10.1488	-1
203.6	93.8489	Inf	0.00203542	25.1432	25.1906	25.0958	32.9983	0.505751	0.53134	10.1488	-1
204	94.0533	Inf	0.00203944	25.1415	25.2002	25.0827	32.9991	0.507628	0.507704	10.1491	-1
204.4	94.0279	Inf	0.00204344	25.1337	25.1981	25.0693	32.9981	0.506212	0.462989	10.1483	-1
204.8	94.1512	Inf	0.00204741	25.1292	25.1906	25.0677	32.9978	0.506995	0.462208	10.1486	-1
205.2	94.0136	Inf	0.00205143	25.1445	25.2104	25.0786	32.9993	0.505527	0.43668	10.1491	-1
205.6	94.2089	Inf	0.00205543	25.1529	25.2077	25.0982	32.9973	0.506898	0.430019	10.1487	-1
206	94.104	Inf	0.00205941	25.1519	25.2096	25.0942	32.9966	0.505196	0.504885	10.1489	-1
206.4	94.2446	Inf	0.00206345	25.1667	25.2185	25.1149	32.9966	0.506671	0.502114	10.1492	-1
206.8	94.0771	Inf	0.00206738	25.1344	25.1728	25.096	32.9971	0.505885	0.477008	10.1486	-1
207.2	94.321	Inf	0.00207143	25.1394	25.1842	25.0946	32.9978	0.506063	0.45749	10.1489	-1
207.6	94.3973	Inf	0.00207544	25.1397	25.1881	25.0912	32.9979	0.505542	0.394465	10.1485	-1
208	94.4451	Inf	0.00207937	25.152	25.2089	25.0951	32.9986	0.505287	0.449255	10.1487	-1
208.4	94.3059	Inf	0.00208342	25.1398	25.195	25.0847	32.998	0.506496	0.503625	10.1494	-1
208.8	94.3462	Inf	0.00208743	25.1382	25.1844	25.092	32.998	0.505303	0.503291	10.1489	-1
209.2	94.2796	Inf	0.00209137	25.155	25.2064	25.1035	32.9994	0.506258	0.479163	10.1486	-1
209.6	94.3874	Inf	0.00209543	25.158	25.1971	25.1188	32.9977	0.505524	0.449088	10.149	-1
210	94.4895	Inf	0.00209941	25.1204	25.1711	25.0697	32.9981	0.506608	0.413748	10.1488	-1
210.4	94.4586	Inf	0.00210338	25.1421	25.1815	25.1028	32.9992	0.506787	0.45291	10.1489	-1
210.8	94.3537	Inf	0.00210741	25.149	25.198	25.1	32.9982	0.50628	0.510099	10.1488	-1
211.2	94.3443	Inf	0.00211135	25.1364	25.193	25.0798	32.9974	0.505309	0.535553	10.149	-1
211.6	94.3135	Inf	0.00211537	25.1265	25.1764	25.0765	32.9986	0.506372	0.504265	10.149	-1
212	94.295	Inf	0.00211938	25.1603	25.2107	25.1099	32.998	0.507271	0.478883	10.1491	-1
212.4	-0.00829928	0.484111	0.00212326	25.1214	25.1735	25.0693	33.0004	0.506303	0.0878272	10.1471	-1
212.8	-0.03822	0.366476	0.00212734	25.1464	25.2027	25.09	32.9977	0.506545	0.162395	10.1472	-1
213.2	-0.161344	0.356055	0.00213136	25.151	25.1939	25.1081	32.9995	0.506174	0.186085	10.147	-1
213.6	-0.192789	0.346067	0.00213535	25.138	25.204	25.0721	32.9998	0.507167	0.174151	10.1474	-1
214	-0.188448	0.357143	0.00213938	25.1393	25.2033	25.0754	33.0007	0.506655	0.13252	10.1471	-1
214.4	-0.178923	0.35294	0.00214337	25.1566	25.219	25.0942	32.9993	0.505739	0.0967588	10.1471	-1
214.8	-0.15228	0.337009	0.00214736	25.1423	25.2073	25.0774	32.9995	0.505903	0.0699539	10.1476	-1
215.2	-0.0422167	0.362453	0.00215135	25.1396	25.1774	25.1018	32.9987	0.506154	0.109289	10.1468	-1
215.35	-0.209538	0.339802	0.00215283	25.1394	25.197	25.0819	32.9988	0.506095	0.157025	10.147	-1