File: data/ReportRaw/Resin_TXT/Unknown_Resin/Tensile_Test_03.txt
Program Started: Tue, Jul 16, 2024	1:13:32 PM	System: µTS4
Test Notes:

User displacement limits active. Low limit -20.000E-3 m, high limit 20.000E-3 m.
User load limits active. Low limit -1.600E+3 N, high limit 1.600E+3 N.

No closed loop control sensors in this test.

Test Segments:
 1. Ramp in Drive Control, +5.00E-3m Amplitude, 10.00E-6 m/s Speed. Sampling at 20.000 Hz, Lowpass Filter Cutoff of 100.000 Hz

Specimen Thickness (m): 	1.550E-3
Specimen Width (m): 	1.910E-3
Specimen Diameter (m): 	0.000E+0
Specimen Area (m^2): 	2.960E-6
Specimen Length (m): 	5.000E-3

Test Started: Tue, Jul 16, 2024	2:35:05 PM
Time (s)	LCFS1600 (N)	LCW1600 (N)	ECATENC (m)	SpecTemp (C)	AirTemp (C)	OutletTemp (C)	JTemp1600 (C)	GTemp1600 (C)	CUR (A)	Ve (V)	Trigger (#)
0.0000000000E+0	-0.206812	-0.201546	-5.0307e-17	25.1737	25.2373	25.1101	32.9308	0.509242	-0.14091	10.1454	-1
0.65	1.71632	1.76595	5.26302e-06	25.1764	25.2378	25.115	32.9306	0.509897	-0.0380474	10.1456	-1
1.3	3.9602	3.94366	1.17693e-05	25.1814	25.2405	25.1222	32.93	0.509675	0.0726557	10.1457	-1
1.95	5.74371	5.83919	1.82735e-05	25.178	25.2449	25.111	32.9306	0.508817	0.119666	10.1455	-1
2.6	7.51458	7.50757	2.47614e-05	25.1778	25.2487	25.107	32.9308	0.508649	0.0978455	10.1458	-1
3.25	8.9925	9.04762	3.12637e-05	25.1831	25.2363	25.1299	32.9304	0.509889	0.123807	10.1458	-1
3.9	10.5251	10.5172	3.77388e-05	25.1655	25.2267	25.1043	32.9305	0.510058	0.186326	10.1462	-1
4.55	11.7102	11.7666	4.42685e-05	25.1908	25.2459	25.1357	32.9301	0.509754	0.131399	10.1458	-1
5.2	12.736	12.7728	5.07842e-05	25.1896	25.2449	25.1343	32.931	0.509874	0.0589918	10.1457	-1
5.85	13.4694	13.449	5.72496e-05	25.1835	25.2491	25.118	32.9322	0.510359	0.125206	10.1457	-1
6.5	13.9631	13.9473	6.37557e-05	25.1805	25.2458	25.1152	32.9318	0.509588	0.194949	10.146	-1
7.15	14.3846	14.4356	7.026e-05	25.183	25.2426	25.1233	32.9309	0.509642	0.0891266	10.1461	-1
7.8	15.387	15.4146	7.67583e-05	25.1928	25.2578	25.1278	32.9312	0.509652	0.0676959	10.1459	-1
8.45	16.7516	16.808	8.32477e-05	25.1738	25.2307	25.1169	32.9303	0.509218	0.125305	10.1459	-1
9.1	18.1208	18.1555	8.97383e-05	25.1852	25.2565	25.1138	32.9304	0.508359	0.126365	10.1463	-1
9.75	19.2673	19.2977	9.62735e-05	25.1914	25.2597	25.1231	32.9312	0.509952	0.0455486	10.1463	-1
10.4	19.6416	19.7146	0.000102761	25.1846	25.2478	25.1215	32.9311	0.508994	0.0466225	10.1464	-1
11.05	19.9848	20.0324	0.000109255	25.1894	25.2514	25.1274	32.9314	0.50924	0.139416	10.1465	-1
11.7	20.1836	20.2797	0.000115762	25.2019	25.2538	25.1499	32.9307	0.509424	0.139781	10.1463	-1
12.35	20.2667	20.3237	0.000122242	25.1957	25.2663	25.1252	32.9313	0.509332	0.0851103	10.1466	-1
13	20.3309	20.3857	0.000128735	25.1758	25.2418	25.1099	32.9319	0.509175	0.17635	10.146	-1
13.65	20.4004	20.4278	0.000135262	25.1903	25.253	25.1276	32.931	0.50934	0.194142	10.1459	-1
14.3	20.4217	20.4383	0.000141757	25.182	25.2468	25.1171	32.9314	0.508555	0.122421	10.1461	-1
14.95	20.4129	20.4594	0.000148235	25.1909	25.2513	25.1304	32.9313	0.509458	0.109981	10.1464	-1
15.6	20.4413	20.4795	0.000154743	25.1971	25.2679	25.1263	32.9311	0.510064	0.15627	10.1463	-1
16.25	20.527	20.5056	0.000161246	25.1867	25.253	25.1205	32.932	0.509525	0.142002	10.1461	-1
16.9	20.5221	20.5206	0.000167757	25.1997	25.2761	25.1233	32.9334	0.509634	0.0684727	10.1464	-1
17.55	20.5314	20.5294	0.000174228	25.1989	25.263	25.1347	32.9309	0.50861	0.0870921	10.146	-1
18.2	20.5746	20.5584	0.00018075	25.1914	25.2488	25.134	32.9319	0.509094	0.145681	10.146	-1
18.85	20.497	20.5787	0.000187233	25.1829	25.2482	25.1176	32.9315	0.509927	0.132096	10.1464	-1
19.5	20.4821	20.6105	0.000193748	25.1942	25.2638	25.1247	32.9317	0.508539	0.123071	10.1464	-1
20.15	20.7899	20.8016	0.00020023	25.1972	25.2599	25.1345	32.9319	0.509504	0.197584	10.1462	-1
20.8	21.0943	21.0974	0.000206745	25.1814	25.253	25.1097	32.933	0.508793	0.250327	10.1463	-1
21.45	21.2813	21.3513	0.000213228	25.1847	25.2425	25.1269	32.932	0.509212	0.226269	10.1467	-1
22.1	21.6074	21.6086	0.000219741	25.1978	25.2565	25.139	32.9343	0.50863	0.151548	10.1464	-1
22.75	22.2217	22.1821	0.000226241	25.1823	25.2435	25.1211	32.9315	0.508922	0.201162	10.1463	-1
23.4	23.0096	23.0097	0.000232732	25.2047	25.267	25.1425	32.9324	0.508505	0.189976	10.1468	-1
24.05	23.5267	23.5687	0.000239236	25.198	25.2679	25.128	32.9324	0.510142	0.157092	10.1467	-1
24.7	23.9848	23.9893	0.000245723	25.1991	25.2624	25.1358	32.9325	0.508487	0.186183	10.1465	-1
25.35	24.3267	24.2926	0.000252225	25.1879	25.2519	25.124	32.9328	0.50927	0.239699	10.1463	-1
26	24.3518	24.463	0.000258723	25.1995	25.257	25.1421	32.9319	0.509507	0.238276	10.1465	-1
26.65	24.608	24.6368	0.000265196	25.2043	25.2699	25.1387	32.9321	0.509776	0.185504	10.1465	-1
27.3	24.7968	24.8367	0.000271718	25.187	25.2517	25.1222	32.9314	0.508589	0.213778	10.1466	-1
27.95	24.9735	25.0226	0.000278227	25.1823	25.253	25.1115	32.9328	0.509742	0.223456	10.1467	-1
28.6	25.1385	25.1891	0.000284728	25.2065	25.2687	25.1442	32.9327	0.509278	0.172016	10.1464	-1
29.25	25.3727	25.3502	0.0002912	25.2002	25.2571	25.1432	32.9325	0.51008	0.178133	10.1469	-1
29.9	25.4247	25.4613	0.0002977	25.1951	25.2525	25.1376	32.9323	0.509308	0.254749	10.1467	-1
30.55	25.4362	25.5399	0.000304226	25.1908	25.2504	25.1313	32.9333	0.509828	0.274001	10.1468	-1
31.2	25.5426	25.636	0.000310732	25.2019	25.2691	25.1346	32.933	0.508998	0.22516	10.1469	-1
31.85	25.7542	25.7398	0.000317203	25.2066	25.2688	25.1444	32.9325	0.50931	0.199995	10.1467	-1
32.5	25.8277	25.8635	0.000323715	25.1953	25.2624	25.1282	32.9328	0.508699	0.216621	10.1467	-1
33.15	25.8783	25.9642	0.000330216	25.1985	25.2643	25.1327	32.934	0.508741	0.144366	10.1468	-1
33.8	26.056	26.0517	0.00033672	25.2133	25.2726	25.154	32.9322	0.50854	0.0898823	10.1465	-1
34.45	26.0653	26.1549	0.000343173	25.1872	25.2512	25.1233	32.9334	0.509802	0.190035	10.1466	-1
35.1	26.2214	26.2395	0.000349703	25.1908	25.2502	25.1314	32.9324	0.509272	0.269085	10.1469	-1
35.75	26.2708	26.3207	0.000356204	25.2041	25.2612	25.147	32.9336	0.509016	0.192635	10.1469	-1
36.4	26.3407	26.406	0.000362703	25.2139	25.2797	25.1482	32.9335	0.5088	0.227267	10.1471	-1
37.05	26.3488	26.423	0.000369193	25.2154	25.288	25.1429	32.932	0.509093	0.275189	10.1465	-1
37.7	26.4175	26.4174	0.000375719	25.1904	25.2451	25.1357	32.9325	0.509159	0.228135	10.1468	-1
38.35	26.3663	26.4218	0.000382191	25.2168	25.2807	25.153	32.9337	0.509167	0.144599	10.1468	-1
39	26.4151	26.4241	0.000388657	25.2138	25.2707	25.1568	32.9341	0.510045	0.179541	10.1467	-1
39.65	26.3748	26.4375	0.00039519	25.1947	25.2579	25.1315	32.9328	0.510177	0.235534	10.1471	-1
40.3	26.3361	26.4396	0.000401695	25.1953	25.2704	25.1203	32.9334	0.509325	0.181121	10.1469	-1
40.95	26.3617	26.4259	0.000408181	25.2132	25.2747	25.1517	32.933	0.509773	0.136089	10.1468	-1
41.6	26.4395	26.4438	0.000414655	25.198	25.2594	25.1366	32.9335	0.509519	0.195464	10.1467	-1
42.25	26.3808	26.4439	0.000421188	25.2044	25.2624	25.1465	32.9336	0.509691	0.197647	10.1468	-1
42.9	26.3592	26.4522	0.000427694	25.2007	25.259	25.1424	32.9349	0.510319	0.133405	10.1467	-1
43.55	26.2873	26.4208	0.000434182	25.2106	25.2785	25.1426	32.9341	0.509851	0.11967	10.1466	-1
44.2	26.459	26.4292	0.000440673	25.207	25.2775	25.1365	32.935	0.509254	0.23159	10.1463	-1
44.85	26.4252	26.4284	0.000447185	25.2121	25.2757	25.1486	32.9326	0.50978	0.246587	10.1467	-1
45.5	26.4715	26.4368	0.000453693	25.2068	25.2754	25.1382	32.9336	0.508805	0.172675	10.1471	-1
46.15	26.3895	26.4442	0.000460141	25.2225	25.2728	25.1721	32.9334	0.50947	0.196119	10.1471	-1
46.8	26.2941	26.4359	0.000466689	25.1991	25.2691	25.1291	32.9339	0.509888	0.251217	10.1469	-1
47.45	26.5646	26.421	0.000473164	25.2162	25.2952	25.1371	32.9359	0.508583	0.189268	10.147	-1
48.1	26.3339	26.4339	0.000479668	25.2068	25.2727	25.1409	32.9337	0.510031	0.134171	10.1469	-1
48.75	26.3186	26.4316	0.000486156	25.2167	25.284	25.1493	32.9337	0.510188	0.159336	10.1468	-1
49.4	26.3859	26.4374	0.000492622	25.2173	25.2825	25.1521	32.935	0.509102	0.186219	10.1468	-1
50.05	26.287	26.4389	0.000499165	25.2009	25.2683	25.1335	32.9331	0.509194	0.137823	10.1468	-1
50.7	26.3615	26.4237	0.00050561	25.2375	25.2994	25.1756	32.9351	0.509032	0.0952531	10.1473	-1
51.35	26.5119	26.426	0.000512104	25.2082	25.2783	25.1381	32.9347	0.510089	0.171624	10.1474	-1
52	26.2673	26.4527	0.000518598	25.2102	25.2685	25.152	32.9332	0.511308	0.195932	10.1469	-1
52.65	26.2916	26.4419	0.000525115	25.2195	25.2922	25.1468	32.9342	0.509732	0.109991	10.147	-1
53.3	26.4038	26.4478	0.000531587	25.2247	25.2913	25.1581	32.9339	0.509328	0.169049	10.1467	-1
53.95	26.4128	26.4306	0.000538082	25.2065	25.2734	25.1397	32.9344	0.510391	0.273071	10.1466	-1
54.6	26.4148	26.4205	0.00054461	25.2041	25.2734	25.1348	32.936	0.510807	0.223262	10.1466	-1
55.25	26.3884	26.4271	0.000551103	25.2026	25.258	25.1472	32.9353	0.509501	0.182038	10.1474	-1
55.9	26.3022	26.437	0.000557592	25.2129	25.2712	25.1546	32.9334	0.509794	0.206247	10.1472	-1
56.55	26.4093	26.4387	0.000564106	25.2294	25.2913	25.1675	32.9338	0.509247	0.227659	10.1472	-1
57.2	26.5181	26.4359	0.000570626	25.2086	25.2751	25.1422	32.9362	0.509079	0.13884	10.1472	-1
57.85	26.3332	26.4338	0.000577097	25.224	25.2905	25.1575	32.9349	0.510749	0.119872	10.1469	-1
58.5	26.3719	26.4385	0.000583589	25.215	25.2775	25.1526	32.9326	0.508906	0.174508	10.1468	-1
59.15	26.4568	26.4482	0.000590106	25.2116	25.2796	25.1435	32.9355	0.5095	0.190356	10.1469	-1
59.8	26.4942	26.4478	0.000596603	25.2166	25.2819	25.1513	32.9355	0.510713	0.142985	10.1467	-1
60.45	26.4181	26.4404	0.000603096	25.2285	25.2885	25.1685	32.9353	0.510494	0.146735	10.1469	-1
61.1	26.4465	26.4361	0.00060959	25.2223	25.2784	25.1662	32.9343	0.510064	0.203133	10.1467	-1
61.75	26.3584	26.4248	0.000616081	25.2058	25.2682	25.1433	32.9352	0.510403	0.14295	10.1469	-1
62.4	26.3964	26.4339	0.000622583	25.2059	25.2649	25.1468	32.9364	0.509813	0.103428	10.1471	-1
63.05	26.3718	26.4402	0.000629071	25.2207	25.2825	25.1588	32.9345	0.511106	0.204063	10.1469	-1
63.7	26.3637	26.4381	0.000635584	25.2251	25.2928	25.1573	32.9352	0.510708	0.245202	10.1472	-1
64.35	26.3987	26.4297	0.000642073	25.2172	25.272	25.1623	32.9361	0.50946	0.20213	10.1469	-1
65	26.4021	26.4358	0.000648575	25.2231	25.2883	25.1579	32.9357	0.510637	0.170275	10.1469	-1
65.65	26.4023	26.4432	0.00065508	25.2178	25.2803	25.1553	32.9356	0.509531	0.180308	10.1468	-1
66.3	26.3507	26.4486	0.000661579	25.2034	25.2617	25.1451	32.9367	0.510392	0.14474	10.1472	-1
66.95	26.4045	26.442	0.000668076	25.2106	25.2758	25.1454	32.9372	0.509854	0.0681828	10.1471	-1
67.6	26.3606	26.4429	0.000674551	25.2289	25.3009	25.157	32.935	0.510102	0.108248	10.1467	-1
68.25	26.3726	26.4342	0.000681053	25.2209	25.2779	25.1639	32.9358	0.510045	0.206485	10.147	-1
68.9	26.4261	26.4361	0.000687589	25.2183	25.2847	25.1518	32.9357	0.510188	0.188951	10.147	-1
69.55	26.4311	26.4421	0.00069408	25.2105	25.2679	25.1531	32.9359	0.509728	0.160056	10.1469	-1
70.2	26.3725	26.4546	0.000700555	25.2293	25.2899	25.1686	32.9365	0.510186	0.215224	10.1467	-1
70.85	26.4838	26.4395	0.000707134	25.2229	25.2843	25.1615	32.9355	0.509969	0.219753	10.1468	-1
71.5	26.3924	26.4318	0.000713569	25.2174	25.2798	25.1551	32.9357	0.509939	0.170801	10.1469	-1
72.15	26.3104	26.4332	0.000720098	25.2135	25.2734	25.1537	32.9358	0.510707	0.120802	10.1465	-1
72.8	26.3375	26.4298	0.00072661	25.2197	25.2843	25.1551	32.9371	0.50983	0.187184	10.1468	-1
73.45	26.3728	26.4429	0.000733104	25.2169	25.2831	25.1507	32.9348	0.510756	0.204935	10.1468	-1
74.1	26.4667	26.4457	0.000739625	25.2156	25.2878	25.1435	32.937	0.510634	0.141838	10.147	-1
74.75	26.3639	26.4387	0.000746049	25.2244	25.2884	25.1603	32.9354	0.51043	0.161458	10.1467	-1
75.4	26.3632	26.4366	0.0007526	25.2299	25.2935	25.1663	32.9368	0.509584	0.178486	10.1468	-1
76.05	26.378	26.4462	0.000759047	25.2286	25.3011	25.1561	32.9357	0.509987	0.135823	10.1466	-1
76.7	26.4018	26.4596	0.000765602	25.2154	25.2919	25.1388	32.9361	0.510598	0.0530352	10.1468	-1
77.35	26.4746	26.4524	0.000772075	25.218	25.286	25.1499	32.9364	0.510483	0.143298	10.1468	-1
78	26.4073	26.4396	0.000778609	25.2396	25.304	25.1752	32.9366	0.509151	0.191491	10.1465	-1
78.65	26.484	26.4305	0.000785079	25.212	25.2806	25.1435	32.938	0.509801	0.157699	10.1467	-1
79.3	26.4216	26.4329	0.000791544	25.2324	25.2973	25.1675	32.9376	0.51026	0.181405	10.1466	-1
79.95	26.4022	26.4383	0.0007981	25.2238	25.2876	25.1601	32.9369	0.510419	0.234751	10.1467	-1
80.6	26.438	26.4425	0.000804607	25.2328	25.2946	25.1711	32.9361	0.50997	0.199011	10.1471	-1
81.25	26.4456	26.4336	0.000811104	25.2119	25.2749	25.1488	32.9368	0.510748	0.108876	10.1468	-1
81.9	26.5511	26.4337	0.000817603	25.2166	25.2766	25.1565	32.9353	0.509939	0.103918	10.1472	-1
82.55	26.3766	26.4398	0.000824092	25.2298	25.2884	25.1713	32.9373	0.509908	0.178341	10.1468	-1
83.2	26.4349	26.4566	0.000830595	25.2217	25.2966	25.1467	32.9375	0.511036	0.142963	10.1469	-1
83.85	26.4677	26.4559	0.000837093	25.2092	25.2816	25.1369	32.9397	0.510269	0.080256	10.1468	-1
84.5	26.487	26.4488	0.000843598	25.2251	25.2769	25.1734	32.9357	0.509353	0.155867	10.1466	-1
85.15	26.4338	26.4386	0.0008501	25.2294	25.2949	25.1639	32.9391	0.509402	0.186469	10.1464	-1
85.8	26.3817	26.4363	0.000856591	25.2231	25.2793	25.1669	32.9389	0.509346	0.181204	10.1471	-1
86.45	26.554	26.4439	0.000863078	25.2221	25.3031	25.1411	32.9371	0.510504	0.126774	10.147	-1
87.1	26.4559	26.4445	0.000869576	25.2268	25.2848	25.1688	32.9369	0.509986	0.247601	10.147	-1
87.75	26.5376	26.4459	0.00087612	25.2318	25.2873	25.1763	32.9368	0.511175	0.228473	10.1466	-1
88.4	26.3571	26.4345	0.000882606	25.2279	25.2814	25.1743	32.9387	0.510044	0.193499	10.1472	-1
89.05	26.2894	26.4235	0.000889065	25.2449	25.3071	25.1827	32.9352	0.509939	0.212604	10.1472	-1
89.7	26.5792	26.4436	0.000895588	25.2323	25.3012	25.1634	32.9389	0.511568	0.256769	10.1468	-1
90.35	26.3482	26.4549	0.000902088	25.2449	25.3044	25.1855	32.9372	0.509128	0.177757	10.1467	-1
91	26.4309	26.4489	0.000908598	25.2241	25.286	25.1622	32.9368	0.509788	0.155038	10.1464	-1
91.65	26.4572	26.4385	0.000915062	25.2103	25.2707	25.15	32.9382	0.509293	0.199931	10.147	-1
92.3	26.3835	26.4407	0.000921575	25.232	25.3025	25.1616	32.9372	0.510475	0.226918	10.1468	-1
92.95	26.4427	26.4404	0.000928077	25.2235	25.2818	25.1651	32.9367	0.510152	0.157613	10.1465	-1
93.6	26.3927	26.4546	0.000934549	25.2168	25.2799	25.1537	32.9363	0.511451	0.164531	10.1467	-1
94.25	26.4649	26.4496	0.000941067	25.2284	25.2967	25.16	32.9371	0.510295	0.208035	10.1468	-1
94.9	26.4376	26.4468	0.000947574	25.2366	25.2951	25.178	32.9366	0.509979	0.203878	10.1467	-1
95.55	26.4218	26.4341	0.000954085	25.2373	25.3114	25.1632	32.9372	0.510363	0.158113	10.1466	-1
96.2	26.3412	26.4454	0.00096056	25.2248	25.2842	25.1654	32.9379	0.510265	0.177143	10.1466	-1
96.85	26.5137	26.4637	0.00096709	25.225	25.2881	25.162	32.9386	0.510007	0.245516	10.1466	-1
97.5	26.4087	26.4608	0.00097358	25.2404	25.3062	25.1746	32.9387	0.510743	0.217589	10.1468	-1
98.15	26.4285	26.4484	0.000980068	25.2335	25.2857	25.1814	32.9377	0.510482	0.14779	10.1466	-1
98.8	26.3941	26.4407	0.000986575	25.2221	25.2715	25.1728	32.9395	0.510645	0.16719	10.1466	-1
99.45	26.4177	26.4507	0.000993067	25.2323	25.2978	25.1669	32.937	0.510525	0.176504	10.1468	-1
100.1	26.4433	26.4561	0.00099957	25.2351	25.2998	25.1705	32.9383	0.510003	0.0953461	10.1468	-1
100.75	26.4785	26.4675	0.00100608	25.2173	25.2751	25.1595	32.9388	0.510145	0.109374	10.1468	-1
101.4	26.3954	26.4638	0.00101259	25.2264	25.2873	25.1655	32.938	0.51032	0.173786	10.1467	-1
102.05	26.4331	26.4529	0.00101911	25.2287	25.2756	25.1818	32.9403	0.510094	0.162558	10.1467	-1
102.7	26.4305	26.4468	0.00102561	25.2312	25.2959	25.1664	32.9385	0.51007	0.168056	10.1467	-1
103.35	26.5313	26.4592	0.00103213	25.228	25.2941	25.1619	32.9378	0.510802	0.190089	10.1462	-1
104	26.4492	26.464	0.00103861	25.2422	25.3061	25.1783	32.94	0.51102	0.265642	10.1466	-1
104.65	26.4611	26.454	0.00104514	25.2452	25.3057	25.1846	32.9392	0.510448	0.18593	10.1466	-1
105.3	26.5084	26.4432	0.00105162	25.2256	25.2875	25.1637	32.9384	0.510427	0.143709	10.147	-1
105.95	26.3635	26.445	0.0010581	25.2314	25.2985	25.1643	32.9404	0.510006	0.207843	10.147	-1
106.6	26.4196	26.4569	0.00106462	25.232	25.2948	25.1693	32.9392	0.510364	0.209742	10.147	-1
107.25	26.4229	26.4629	0.00107111	25.2376	25.305	25.1702	32.9382	0.510366	0.188418	10.1467	-1
107.9	26.4665	26.467	0.00107759	25.2357	25.3064	25.1649	32.9397	0.510424	0.149114	10.1464	-1
108.55	26.4343	26.465	0.00108409	25.2253	25.2976	25.153	32.9397	0.510452	0.185352	10.1471	-1
109.2	26.4134	26.4583	0.00109062	25.2404	25.3023	25.1785	32.9394	0.510153	0.183438	10.147	-1
109.85	26.3753	26.4578	0.00109711	25.2329	25.2844	25.1814	32.9399	0.5102	0.100934	10.1468	-1
110.5	26.4896	26.4591	0.00110359	25.2166	25.2814	25.1518	32.9395	0.509461	0.140865	10.147	-1
111.15	26.461	26.4545	0.00111011	25.2184	25.2826	25.1542	32.9392	0.510134	0.20677	10.1471	-1
111.8	26.4864	26.4502	0.00111661	25.2189	25.2913	25.1464	32.9396	0.510933	0.184346	10.1468	-1
112.45	26.3985	26.4426	0.00112311	25.2319	25.3001	25.1636	32.9395	0.509855	0.164457	10.1469	-1
113.1	26.3393	26.4538	0.00112956	25.2406	25.3055	25.1756	32.9392	0.51147	0.238074	10.1471	-1
113.75	26.3619	26.4632	0.0011361	25.2254	25.28	25.1709	32.9402	0.510839	0.232885	10.1466	-1
114.4	26.4971	26.4648	0.00114261	25.243	25.2934	25.1925	32.941	0.510311	0.17475	10.1471	-1
115.05	26.3887	26.4644	0.00114911	25.2412	25.3011	25.1814	32.9393	0.511912	0.16181	10.1468	-1
115.7	26.4528	26.457	0.00115558	25.2309	25.2838	25.178	32.9407	0.510535	0.21733	10.1467	-1
116.35	26.3942	26.4484	0.00116209	25.2204	25.3009	25.1398	32.9407	0.509919	0.185658	10.1473	-1
117	26.5117	26.4597	0.00116856	25.2264	25.2931	25.1598	32.9386	0.510666	0.113385	10.1468	-1
117.65	26.4877	26.4664	0.00117509	25.2223	25.286	25.1586	32.9411	0.511249	0.148551	10.1472	-1
118.3	26.3779	26.4646	0.00118157	25.2064	25.2738	25.139	32.9403	0.509768	0.219156	10.1469	-1
118.95	26.4693	26.4574	0.00118809	25.2345	25.3059	25.163	32.9391	0.511014	0.209829	10.1466	-1
119.6	26.4401	26.4563	0.00119458	25.2334	25.2874	25.1795	32.9393	0.510413	0.193916	10.1468	-1
120.25	26.4989	26.4536	0.00120104	25.2415	25.3088	25.1742	32.9416	0.510131	0.262497	10.1467	-1
120.9	26.3543	26.4567	0.00120757	25.2331	25.3011	25.1651	32.9402	0.510882	0.291771	10.1468	-1
121.55	26.3587	26.4625	0.00121408	25.2353	25.2987	25.172	32.9402	0.510525	0.235577	10.1466	-1
122.2	26.4448	26.4547	0.00122058	25.2362	25.3017	25.1707	32.9405	0.510704	0.196793	10.1469	-1
122.85	26.4945	26.4539	0.00122706	25.2272	25.2775	25.1768	32.9402	0.510077	0.239999	10.1472	-1
123.5	26.4405	26.4547	0.00123356	25.2348	25.2978	25.1717	32.9401	0.511882	0.19948	10.1472	-1
124.15	26.5448	26.4613	0.00124009	25.2168	25.2837	25.1499	32.9401	0.509705	0.161054	10.1466	-1
124.8	26.5495	26.4718	0.00124657	25.2374	25.293	25.1818	32.9415	0.510142	0.19355	10.1466	-1
125.45	26.4489	26.4751	0.00125308	25.2268	25.2886	25.1651	32.9396	0.511424	0.265968	10.1467	-1
126.1	26.4257	26.4704	0.00125957	25.226	25.2892	25.1628	32.9414	0.510237	0.231697	10.1471	-1
126.75	26.4475	26.4607	0.00126608	25.2369	25.295	25.1787	32.9415	0.510031	0.203513	10.1471	-1
127.4	26.4186	26.459	0.00127257	25.2262	25.2954	25.1571	32.9424	0.511011	0.25188	10.1466	-1
128.05	26.3973	26.4622	0.00127908	25.2353	25.2939	25.1767	32.9421	0.512124	0.276418	10.1467	-1
128.7	26.4804	26.4707	0.00128557	25.2434	25.3115	25.1753	32.941	0.509729	0.21995	10.1467	-1
129.35	26.4034	26.4675	0.00129208	25.2414	25.3114	25.1713	32.941	0.510547	0.21302	10.1473	-1
130	26.3489	26.4542	0.00129853	25.2354	25.2935	25.1773	32.9416	0.511289	0.264136	10.1468	-1
130.65	26.4113	26.4499	0.00130508	25.2255	25.2826	25.1684	32.9413	0.510617	0.305585	10.1468	-1
131.3	26.5213	26.4558	0.00131157	25.2455	25.3057	25.1853	32.941	0.510451	0.227613	10.1468	-1
131.95	26.3553	26.4784	0.00131804	25.2345	25.2901	25.1789	32.9407	0.51004	0.229307	10.147	-1
132.6	26.5346	26.4829	0.00132457	25.2214	25.2877	25.1551	32.942	0.510679	0.214623	10.1469	-1
133.25	26.4157	26.4766	0.00133101	25.2269	25.2952	25.1586	32.9409	0.511292	0.171105	10.1468	-1
133.9	26.3626	26.466	0.00133753	25.2429	25.2945	25.1914	32.9395	0.509929	0.127868	10.1466	-1
134.55	26.5468	26.4748	0.00134403	25.2368	25.303	25.1707	32.9407	0.510688	0.227888	10.1466	-1
135.2	26.4917	26.4749	0.00135049	25.2186	25.2922	25.145	32.9403	0.510655	0.321603	10.1467	-1
135.85	26.4505	26.4849	0.00135699	25.2235	25.2875	25.1596	32.9423	0.509935	0.250304	10.1472	-1
136.5	26.4588	26.4804	0.00136349	25.2417	25.3062	25.1773	32.941	0.509606	0.291689	10.1468	-1
137.15	26.4209	26.4631	0.00137005	25.2364	25.2989	25.1739	32.9414	0.509641	0.317485	10.1465	-1
137.8	26.4334	26.4684	0.00137656	25.2336	25.2872	25.18	32.941	0.511545	0.274699	10.1465	-1
138.45	26.497	26.4798	0.00138303	25.2454	25.2987	25.192	32.9414	0.510952	0.183383	10.1469	-1
139.1	26.3998	26.4898	0.00138949	25.2343	25.2941	25.1746	32.9426	0.511267	0.207646	10.1468	-1
139.75	26.3647	26.4908	0.00139598	25.2396	25.2904	25.1888	32.9416	0.510703	0.269329	10.147	-1
140.4	26.4906	26.4839	0.00140249	25.2356	25.2891	25.1821	32.9429	0.511025	0.191159	10.1468	-1
141.05	26.4249	26.4757	0.00140905	25.2367	25.3033	25.17	32.943	0.51016	0.163168	10.1471	-1
141.7	26.4191	26.4784	0.00141548	25.249	25.3084	25.1896	32.9418	0.510505	0.219715	10.147	-1
142.35	26.4912	26.488	0.001422	25.2325	25.2994	25.1655	32.942	0.511666	0.201375	10.1468	-1
143	26.4462	26.4938	0.00142848	25.2285	25.3006	25.1563	32.9412	0.51084	0.124748	10.147	-1
143.65	26.4041	26.4913	0.00143495	25.2413	25.3062	25.1764	32.9429	0.510459	0.162073	10.1467	-1
144.3	26.5195	26.481	0.00144148	25.2406	25.289	25.1922	32.9426	0.509433	0.220611	10.1467	-1
144.95	26.4274	26.4802	0.00144799	25.2336	25.2979	25.1694	32.9419	0.511077	0.212494	10.147	-1
145.6	26.3403	26.4901	0.00145446	25.2302	25.2795	25.181	32.9434	0.510589	0.170247	10.1469	-1
146.25	26.373	26.4923	0.00146096	25.2311	25.2889	25.1733	32.9432	0.510683	0.226783	10.1468	-1
146.9	26.4084	26.4921	0.00146747	25.2413	25.3006	25.1819	32.9421	0.511283	0.258072	10.1468	-1
147.55	26.4785	26.496	0.00147399	25.2195	25.2742	25.1648	32.9419	0.510335	0.189982	10.147	-1
148.2	26.4006	26.4921	0.00148046	25.2492	25.3102	25.1882	32.9434	0.510329	0.138926	10.1468	-1
148.85	26.3984	26.4927	0.00148695	25.2341	25.2978	25.1705	32.9421	0.511173	0.210512	10.1469	-1
149.5	26.4503	26.5084	0.00149346	25.238	25.3045	25.1714	32.9428	0.510172	0.218749	10.1468	-1
150.15	26.4329	26.5198	0.00149996	25.2248	25.2935	25.1561	32.9426	0.510937	0.144356	10.147	-1
150.8	26.5245	26.5123	0.00150646	25.2444	25.3172	25.1716	32.943	0.510729	0.12837	10.1467	-1
151.45	26.5327	26.5026	0.00151295	25.23	25.2908	25.1692	32.9432	0.510893	0.214925	10.1469	-1
152.1	26.3822	26.4996	0.00151946	25.2333	25.298	25.1687	32.9448	0.511466	0.191516	10.1472	-1
152.75	26.5648	26.5066	0.001526	25.2287	25.2982	25.1591	32.9443	0.510717	0.12805	10.147	-1
153.4	26.4272	26.5139	0.00153244	25.2301	25.2915	25.1686	32.942	0.510817	0.178311	10.1469	-1
154.05	26.4777	26.5192	0.00153893	25.2248	25.2888	25.1607	32.9438	0.511023	0.294558	10.1468	-1
154.7	26.4459	26.5127	0.00154549	25.2184	25.289	25.1478	32.9426	0.510026	0.237139	10.1469	-1
155.35	26.5032	26.5204	0.00155195	25.2345	25.2885	25.1804	32.9416	0.51067	0.202046	10.1472	-1
156	26.4534	26.5294	0.00155843	25.2409	25.3046	25.1772	32.9428	0.509929	0.19187	10.147	-1
156.65	26.5564	26.5442	0.00156494	25.2275	25.2863	25.1686	32.947	0.510341	0.226817	10.1472	-1
157.3	26.5004	26.5468	0.00157145	25.2243	25.2804	25.1683	32.9424	0.511121	0.181424	10.1467	-1
157.95	26.5347	26.5449	0.00157793	25.2329	25.292	25.1738	32.9428	0.510562	0.158707	10.1469	-1
158.6	26.5045	26.5318	0.00158442	25.2321	25.2945	25.1697	32.9424	0.510699	0.220143	10.147	-1
159.25	26.5427	26.5365	0.00159096	25.2439	25.2937	25.194	32.9431	0.510897	0.193417	10.1469	-1
159.9	26.5224	26.547	0.00159744	25.2247	25.2891	25.1604	32.9441	0.510665	0.158757	10.1469	-1
160.55	26.5037	26.5575	0.00160394	25.2253	25.2809	25.1697	32.9437	0.511339	0.192137	10.1469	-1
161.2	26.6419	26.6132	0.00161043	25.2296	25.2865	25.1728	32.9444	0.509963	0.223955	10.1466	-1
161.85	26.7137	26.7363	0.00161694	25.232	25.2991	25.1649	32.944	0.510451	0.179911	10.1464	-1
162.5	26.8794	26.8805	0.00162342	25.2121	25.2691	25.1551	32.9432	0.510861	0.12767	10.147	-1
163.15	26.9208	27.0341	0.00162996	25.2267	25.2967	25.1566	32.9438	0.510391	0.22093	10.1467	-1
163.8	27.188	27.1937	0.00163641	25.2326	25.3047	25.1606	32.9439	0.510299	0.26197	10.1467	-1
164.45	27.2725	27.3621	0.00164293	25.2311	25.2942	25.168	32.9444	0.509767	0.200977	10.1465	-1
165.1	27.429	27.514	0.00164946	25.2309	25.3013	25.1604	32.944	0.510124	0.18495	10.1467	-1
165.75	27.618	27.6968	0.00165594	25.2358	25.2992	25.1724	32.9436	0.511042	0.19992	10.1467	-1
166.4	27.7838	27.8809	0.00166249	25.2382	25.3036	25.1727	32.9435	0.510674	0.162921	10.1465	-1
167.05	28.0776	28.0883	0.00166899	25.2349	25.3105	25.1594	32.9446	0.510717	0.088571	10.1469	-1
167.7	28.2325	28.3041	0.00167545	25.23	25.2906	25.1694	32.9439	0.511063	0.136725	10.147	-1
168.35	28.5539	28.5411	0.00168199	25.2468	25.3155	25.1781	32.9436	0.510977	0.204907	10.1471	-1
169	28.7362	28.7457	0.00168849	25.2204	25.2849	25.1559	32.945	0.510551	0.19462	10.1465	-1
169.65	28.9483	28.9968	0.00169496	25.227	25.2905	25.1635	32.9459	0.511929	0.184563	10.1466	-1
170.3	29.2437	29.275	0.00170146	25.2268	25.2911	25.1626	32.9447	0.51015	0.23763	10.1469	-1
170.95	29.4215	29.558	0.00170792	25.2242	25.2851	25.1633	32.9453	0.509983	0.232665	10.1469	-1
171.6	29.7147	29.8526	0.00171447	25.229	25.2923	25.1656	32.9448	0.510958	0.129746	10.147	-1
172.25	30.0926	30.1356	0.00172095	25.2291	25.2845	25.1736	32.945	0.509703	0.16377	10.1469	-1
172.9	30.4625	30.4533	0.00172747	25.2328	25.2971	25.1686	32.9452	0.511012	0.214046	10.147	-1
173.55	30.7167	30.794	0.00173398	25.2427	25.316	25.1693	32.9451	0.510919	0.214186	10.147	-1
174.2	31.0985	31.1205	0.00174046	25.2244	25.2914	25.1574	32.944	0.510397	0.163688	10.1471	-1
174.85	31.409	31.4563	0.00174694	25.2245	25.2842	25.1648	32.9454	0.509796	0.178352	10.1472	-1
175.5	31.7699	31.8021	0.00175346	25.2308	25.3049	25.1568	32.9459	0.510713	0.187216	10.1468	-1
176.15	32.1009	32.1292	0.00175997	25.2229	25.2884	25.1573	32.9453	0.511125	0.141967	10.1471	-1
176.8	32.4811	32.4953	0.00176646	25.2302	25.2926	25.1677	32.945	0.510169	0.115175	10.1473	-1
177.45	32.8091	32.8559	0.00177295	25.2429	25.3017	25.1842	32.9449	0.511104	0.172298	10.1472	-1
178.1	33.1685	33.1895	0.00177947	25.2317	25.2813	25.1821	32.9451	0.511214	0.204146	10.1471	-1
178.75	33.3845	33.4892	0.00178595	25.2356	25.2971	25.1742	32.9444	0.510513	0.163931	10.1475	-1
179.4	33.7131	33.7636	0.00179245	25.22	25.2858	25.1541	32.9465	0.510487	0.200417	10.1474	-1
180.05	33.9878	34.0491	0.00179894	25.2359	25.3021	25.1697	32.9453	0.511463	0.229937	10.1475	-1
180.7	34.2075	34.3634	0.00180547	25.2297	25.2968	25.1625	32.9458	0.51065	0.214444	10.1471	-1
181.35	34.653	34.6974	0.00181195	25.2237	25.2917	25.1556	32.9461	0.510203	0.133244	10.1469	-1
182	34.9454	35.0126	0.00181843	25.2426	25.3016	25.1837	32.9466	0.509795	0.135524	10.1475	-1
182.65	35.2073	35.322	0.00182495	25.2454	25.3088	25.1821	32.9453	0.511286	0.189852	10.1477	-1
183.3	35.6441	35.6358	0.00183144	25.2123	25.2649	25.1596	32.9463	0.510877	0.140151	10.1475	-1
183.95	36.0587	35.9866	0.00183793	25.222	25.2749	25.1692	32.9474	0.509784	0.127935	10.1478	-1
184.6	36.3475	36.351	0.00184443	25.2292	25.2867	25.1716	32.946	0.510233	0.141608	10.1475	-1
185.25	36.6234	36.6785	0.00185094	25.2266	25.28	25.1732	32.9459	0.510604	0.192956	10.1471	-1
185.9	36.9091	37.0102	0.00185743	25.2136	25.2751	25.152	32.9458	0.510518	0.155242	10.1479	-1
186.55	37.2869	37.3133	0.00186394	25.2456	25.2973	25.194	32.9457	0.509832	0.173531	10.1475	-1
187.2	37.6175	37.6565	0.00187042	25.2316	25.2923	25.1709	32.9464	0.510128	0.285251	10.1476	-1
187.85	37.9634	37.9783	0.00187692	25.2297	25.2893	25.1701	32.9461	0.509387	0.203514	10.1473	-1
188.5	38.2336	38.3033	0.00188343	25.2259	25.2768	25.175	32.9454	0.510425	0.19939	10.1476	-1
189.15	38.688	38.6962	0.00188993	25.2194	25.2726	25.1662	32.9462	0.509812	0.205736	10.1473	-1
189.8	39.1091	39.1636	0.00189643	25.225	25.2739	25.1761	32.9453	0.510512	0.249209	10.1478	-1
190.45	39.6939	39.7042	0.00190294	25.2138	25.2785	25.1491	32.9465	0.510175	0.194777	10.1479	-1
191.1	40.2087	40.2697	0.00190943	25.2253	25.2883	25.1623	32.9459	0.509682	0.152964	10.1477	-1
191.75	40.8095	40.8455	0.00191593	25.2266	25.2974	25.1558	32.9472	0.509349	0.20632	10.1476	-1
192.4	41.3904	41.4373	0.00192242	25.2365	25.2976	25.1753	32.9466	0.509701	0.253722	10.1475	-1
193.05	42.0887	42.0398	0.00192894	25.2165	25.2759	25.157	32.9456	0.508744	0.15874	10.1476	-1
193.7	42.4952	42.6477	0.00193542	25.2224	25.2938	25.151	32.9472	0.50974	0.175808	10.1481	-1
194.35	43.2051	43.2865	0.00194194	25.2148	25.2704	25.1591	32.9457	0.509595	0.239021	10.148	-1
195	43.8008	43.8825	0.00194845	25.2361	25.3022	25.17	32.946	0.510138	0.234774	10.1477	-1
195.65	44.532	44.5952	0.00195494	25.2305	25.2966	25.1645	32.9458	0.509547	0.168422	10.1478	-1
196.3	45.1546	45.2633	0.00196141	25.2258	25.2828	25.1688	32.945	0.510393	0.219988	10.1478	-1
196.95	45.8392	45.9191	0.00196791	25.23	25.2886	25.1713	32.947	0.510456	0.285711	10.1479	-1
197.6	46.5985	46.6296	0.00197443	25.2206	25.2774	25.1638	32.9491	0.509926	0.234141	10.148	-1
198.25	47.2461	47.3504	0.00198091	25.2246	25.2917	25.1575	32.9459	0.509453	0.190798	10.1482	-1
198.9	47.9505	48.0472	0.0019874	25.2235	25.2817	25.1652	32.9456	0.50921	0.240009	10.1481	-1
199.55	48.6654	48.7698	0.00199391	25.2333	25.2846	25.182	32.9468	0.509772	0.229326	10.1481	-1
200.2	49.4479	49.4613	0.00200042	25.2353	25.2875	25.1832	32.9467	0.510848	0.149238	10.1481	-1
200.85	50.1065	50.1948	0.0020069	25.2159	25.279	25.1528	32.9468	0.509287	0.162984	10.148	-1
201.5	50.9328	50.9013	0.0020134	25.2149	25.272	25.1578	32.9463	0.509481	0.222069	10.1483	-1
202.15	51.6483	51.645	0.00201992	25.2226	25.2937	25.1515	32.9478	0.508695	0.240122	10.148	-1
202.8	52.2568	52.3285	0.0020264	25.222	25.2822	25.1618	32.9476	0.510126	0.213731	10.1483	-1
203.45	53.0475	53.1214	0.0020329	25.2093	25.2642	25.1544	32.9466	0.509505	0.290219	10.148	-1
204.1	53.7938	53.8427	0.00203939	25.2249	25.2892	25.1606	32.9475	0.509562	0.302053	10.1485	-1
204.75	54.5713	54.5844	0.00204592	25.2167	25.2852	25.1481	32.9465	0.508469	0.243821	10.1485	-1
205.4	55.2675	55.3041	0.00205241	25.2226	25.2866	25.1586	32.9477	0.509594	0.20002	10.1487	-1
206.05	56.0452	56.0515	0.0020589	25.2194	25.2877	25.1511	32.9478	0.509162	0.235829	10.1483	-1
206.7	56.6222	56.7673	0.00206541	25.2261	25.2858	25.1665	32.9471	0.509791	0.265189	10.1485	-1
207.35	57.5185	57.4956	0.0020719	25.2288	25.3022	25.1555	32.9477	0.509653	0.233749	10.1487	-1
208	58.101	Inf	0.0020784	25.2066	25.2712	25.142	32.9475	0.509093	0.198935	10.1488	-1
208.65	58.8146	Inf	0.00208488	25.2241	25.2855	25.1627	32.9476	0.509873	0.249998	10.1485	-1
209.3	59.5808	Inf	0.0020914	25.2295	25.2896	25.1694	32.9474	0.509749	0.20781	10.1486	-1
209.95	60.377	Inf	0.0020979	25.219	25.279	25.159	32.9481	0.50981	0.169884	10.1485	-1
210.6	61.2356	Inf	0.00210439	25.2126	25.2826	25.1427	32.9469	0.509685	0.193885	10.1487	-1
211.25	61.9279	Inf	0.00211087	25.2148	25.284	25.1455	32.949	0.509354	0.283811	10.1487	-1
211.9	62.6478	Inf	0.00211741	25.2192	25.287	25.1513	32.9478	0.508916	0.243531	10.1487	-1
212.55	63.3894	Inf	0.00212387	25.2124	25.2849	25.1399	32.9492	0.509113	0.22854	10.1484	-1
213.2	64.1819	Inf	0.00213038	25.206	25.2686	25.1434	32.949	0.509227	0.282337	10.1489	-1
213.85	64.7816	Inf	0.00213689	25.216	25.2933	25.1387	32.9487	0.508779	0.306797	10.1489	-1
214.5	65.5529	Inf	0.00214338	25.2219	25.2835	25.1604	32.9494	0.509356	0.219992	10.1489	-1
215.15	66.3049	Inf	0.00214986	25.2158	25.2929	25.1386	32.9489	0.50924	0.232973	10.1491	-1
215.8	67.0246	Inf	0.00215636	25.2219	25.2844	25.1595	32.9486	0.50922	0.272095	10.149	-1
216.45	67.8732	Inf	0.00216288	25.2309	25.2912	25.1705	32.9475	0.509004	0.235798	10.1488	-1
217.1	68.6589	Inf	0.00216938	25.2185	25.2825	25.1545	32.9486	0.509152	0.180138	10.1492	-1
217.75	69.3829	Inf	0.00217585	25.2073	25.2672	25.1474	32.9471	0.508549	0.241102	10.1492	-1
218.4	70.0854	Inf	0.00218238	25.2095	25.2596	25.1595	32.9483	0.509629	0.268473	10.1492	-1
219.05	70.7362	Inf	0.00218888	25.2176	25.2848	25.1503	32.949	0.508982	0.227775	10.1491	-1
219.7	71.1906	Inf	0.00219536	25.2256	25.2862	25.1649	32.9499	0.50808	0.244371	10.149	-1
220.35	71.6931	Inf	0.00220187	25.2292	25.2954	25.163	32.9497	0.509837	0.315826	10.1493	-1
221	72.2223	Inf	0.00220838	25.2181	25.2893	25.1469	32.9488	0.509829	0.339493	10.1493	-1
221.65	72.7333	Inf	0.00221486	25.2164	25.2728	25.16	32.95	0.508087	0.314301	10.149	-1
222.3	73.4159	Inf	0.00222138	25.2073	25.2731	25.1414	32.9483	0.509071	0.275964	10.1491	-1
222.95	73.947	Inf	0.00222786	25.2032	25.2729	25.1335	32.9473	0.509028	0.325105	10.1491	-1
223.6	74.6668	Inf	0.00223439	25.2268	25.2833	25.1703	32.9481	0.507643	0.317086	10.1488	-1
224.25	75.2095	Inf	0.00224086	25.2058	25.2569	25.1548	32.9484	0.509395	0.247839	10.1489	-1
224.9	75.8334	Inf	0.00224736	25.2089	25.2652	25.1526	32.9491	0.508977	0.280472	10.1492	-1
225.55	76.1776	Inf	0.00225384	25.2269	25.2936	25.1603	32.949	0.508691	0.347174	10.1489	-1
226.2	76.6258	Inf	0.00226036	25.2322	25.3055	25.1589	32.9487	0.509471	0.301871	10.1489	-1
226.85	76.9703	Inf	0.00226686	25.2283	25.2896	25.167	32.9509	0.50893	0.293635	10.1495	-1
227.5	77.6609	Inf	0.00227334	25.2154	25.2681	25.1628	32.9509	0.508146	0.332021	10.1489	-1
228.15	78.3963	Inf	0.00227984	25.2207	25.2796	25.1619	32.9492	0.509939	0.38991	10.1487	-1
228.8	78.9715	Inf	0.00228631	25.2318	25.2885	25.175	32.9497	0.50801	0.272879	10.1494	-1
229.45	79.6824	Inf	0.00229278	25.2131	25.2636	25.1627	32.9498	0.509522	0.287779	10.1481	-1
230.1	80.1934	Inf	0.00229928	25.2074	25.2674	25.1475	32.9496	0.509062	0.402418	10.1486	-1
230.75	80.5434	Inf	0.00230586	25.2114	25.2627	25.1602	32.9505	0.508381	0.368959	10.1488	-1
231.4	81.12	Inf	0.00231229	25.2338	25.2972	25.1705	32.9503	0.508167	0.328598	10.1488	-1
232.05	81.501	Inf	0.00231879	25.2116	25.2769	25.1464	32.9501	0.508788	0.342698	10.1483	-1
232.7	82.0089	Inf	0.00232531	25.1997	25.2618	25.1377	32.9505	0.508079	0.35492	10.1487	-1
233.35	82.7608	Inf	0.0023318	25.2244	25.2862	25.1626	32.9505	0.508302	0.281739	10.1489	-1
234	83.2677	Inf	0.00233827	25.2241	25.2748	25.1734	32.9495	0.508787	0.289762	10.1484	-1
234.65	84.0802	Inf	0.0023448	25.2158	25.2881	25.1434	32.9501	0.507977	0.351223	10.1486	-1
235.3	84.6609	Inf	0.00235129	25.2205	25.2808	25.1603	32.9502	0.507976	0.369841	10.1487	-1
235.95	85.1594	Inf	0.00235779	25.2147	25.2789	25.1505	32.9513	0.508472	0.31464	10.1486	-1
236.6	85.6559	Inf	0.00236427	25.221	25.2773	25.1647	32.9509	0.508474	0.355152	10.1489	-1
237.25	86.6385	Inf	0.00237077	25.2154	25.2655	25.1654	32.9516	0.509062	0.456918	10.1493	-1
237.9	87.2932	Inf	0.00237727	25.2151	25.2779	25.1523	32.9487	0.507891	0.436547	10.1487	-1
238.55	88.0853	Inf	0.00238378	25.2168	25.2871	25.1464	32.9525	0.507776	0.39926	10.1488	-1
239.2	89.1169	Inf	0.00239028	25.1997	25.2516	25.1478	32.951	0.508035	0.50471	10.1494	-1
239.85	89.8856	Inf	0.00239676	25.2183	25.2624	25.1742	32.9505	0.507633	0.568929	10.1487	-1
240.5	90.7563	Inf	0.00240328	25.2346	25.3016	25.1676	32.9506	0.508699	0.5573	10.1486	-1
241.15	91.3533	Inf	0.00240977	25.2204	25.2866	25.1542	32.9508	0.50903	0.577474	10.149	-1
241.8	91.9583	Inf	0.00241626	25.2227	25.2689	25.1766	32.9513	0.507986	0.638696	10.1485	-1
242.45	92.6208	Inf	0.00242277	25.2135	25.2698	25.1571	32.9488	0.507954	0.634708	10.149	-1
243.1	93.2255	Inf	0.00242926	25.2329	25.3033	25.1625	32.9528	0.507993	0.572402	10.1487	-1
243.75	93.9672	Inf	0.00243575	25.2139	25.2832	25.1446	32.952	0.508225	0.619191	10.149	-1
244.4	94.4752	Inf	0.00244225	25.1981	25.2706	25.1257	32.952	0.508913	0.727693	10.1484	-1
245.05	95.319	Inf	0.00244876	25.2141	25.2758	25.1525	32.9513	0.507156	0.736424	10.149	-1
245.7	96.1859	Inf	0.00245525	25.2335	25.2868	25.1801	32.9504	0.508201	0.745354	10.1487	-1
246.35	96.7614	Inf	0.00246175	25.2158	25.2871	25.1445	32.9516	0.508335	0.799924	10.1491	-1
247	97.6149	Inf	0.00246826	25.2296	25.2714	25.1877	32.9511	0.508093	0.815197	10.1486	-1
247.65	98.2054	Inf	0.00247476	25.2242	25.2833	25.1651	32.9512	0.507467	0.726849	10.1482	-1
248.3	98.8443	Inf	0.00248125	25.2111	25.2756	25.1466	32.9516	0.508191	0.675051	10.1487	-1
248.95	99.4309	Inf	0.00248775	25.2042	25.2558	25.1525	32.9511	0.508233	0.745571	10.1486	-1
249.6	99.94	Inf	0.00249427	25.2023	25.2613	25.1433	32.9514	0.507592	0.798956	10.1487	-1
250.25	100.586	Inf	0.00250073	25.2072	25.2637	25.1507	32.9514	0.50779	0.729854	10.1484	-1
250.9	101.272	Inf	0.00250724	25.2155	25.2847	25.1463	32.9502	0.508541	0.777499	10.1488	-1
251.55	101.946	Inf	0.00251373	25.2295	25.3029	25.1562	32.9513	0.50806	0.882477	10.1483	-1
252.2	102.665	Inf	0.00252027	25.2209	25.2786	25.1633	32.9512	0.508037	0.875514	10.1484	-1
252.85	103.091	Inf	0.00252672	25.2279	25.2861	25.1697	32.9514	0.508231	0.895492	10.1485	-1
253.5	103.367	Inf	0.00253321	25.2065	25.2637	25.1493	32.9519	0.508531	0.959532	10.1482	-1
254.15	103.788	Inf	0.00253973	25.202	25.2617	25.1424	32.9518	0.508587	0.991634	10.1487	-1
254.8	104.337	Inf	0.00254626	25.2188	25.265	25.1725	32.9514	0.507696	0.911833	10.1485	-1
255.45	104.952	Inf	0.00255272	25.2259	25.2972	25.1546	32.9524	0.508895	0.902936	10.1482	-1
256.1	105.637	Inf	0.00255922	25.2079	25.2661	25.1496	32.9507	0.507597	0.950328	10.1484	-1
256.75	106.318	Inf	0.00256575	25.2137	25.2645	25.163	32.9522	0.508047	0.944503	10.1485	-1
257.4	106.857	Inf	0.00257223	25.2145	25.284	25.145	32.9528	0.508676	0.869843	10.1483	-1
258.05	107.358	Inf	0.00257874	25.2167	25.2758	25.1577	32.9518	0.509157	0.832004	10.1483	-1
258.7	108.065	Inf	0.00258527	25.207	25.2647	25.1492	32.9532	0.508561	0.915276	10.1486	-1
259.35	108.541	Inf	0.00259179	25.2106	25.2648	25.1564	32.9527	0.507046	0.914352	10.1482	-1
260	109.189	Inf	0.00259823	25.214	25.2814	25.1467	32.9521	0.508292	0.874115	10.1485	-1
260.65	109.791	Inf	0.00260476	25.2111	25.2614	25.1607	32.9528	0.508386	0.9494	10.1482	-1
261.3	110.352	Inf	0.00261127	25.1992	25.257	25.1413	32.9536	0.508186	1.01097	10.1484	-1
261.95	110.791	Inf	0.00261778	25.2072	25.2728	25.1415	32.9528	0.508103	0.971715	10.1489	-1
262.6	111.28	Inf	0.00262429	25.2126	25.2626	25.1626	32.9531	0.508043	0.939549	10.1486	-1
263.25	111.768	Inf	0.00263076	25.2038	25.2737	25.1338	32.9527	0.507843	1.02292	10.1481	-1
263.9	112.236	Inf	0.00263725	25.2158	25.2737	25.158	32.9524	0.507188	1.01909	10.1484	-1
264.55	112.67	Inf	0.00264377	25.224	25.2921	25.1558	32.9545	0.50684	0.964098	10.1486	-1
265.2	113.215	Inf	0.00265025	25.2116	25.2715	25.1518	32.9532	0.508537	0.971053	10.149	-1
265.85	113.768	Inf	0.00265675	25.2061	25.2644	25.1478	32.9532	0.507985	1.01778	10.1485	-1
266.5	114.274	Inf	0.00266325	25.2106	25.267	25.1542	32.9528	0.507799	0.938649	10.1487	-1
267.15	114.641	Inf	0.00266976	25.215	25.2833	25.1466	32.9545	0.508594	0.867047	10.1485	-1
267.8	114.973	Inf	0.00267627	25.2274	25.2815	25.1733	32.9538	0.508465	0.907186	10.1491	-1
268.45	115.442	Inf	0.00268276	25.2034	25.2607	25.146	32.9553	0.50866	1.01694	10.1488	-1
269.1	115.773	Inf	0.00268928	25.2198	25.2758	25.1639	32.9536	0.508565	0.977535	10.1485	-1
269.75	116.136	Inf	0.00269575	25.2239	25.285	25.1629	32.9527	0.509048	0.965376	10.1483	-1
270.4	116.478	Inf	0.00270226	25.2018	25.2708	25.1327	32.9537	0.509231	0.957479	10.1488	-1
271.05	116.77	Inf	0.00270878	25.2059	25.2669	25.1449	32.9539	0.508168	0.941246	10.1483	-1
271.7	117.19	Inf	0.00271527	25.2091	25.279	25.1391	32.9537	0.508306	0.866642	10.1486	-1
272.35	117.455	Inf	0.00272173	25.2097	25.2664	25.153	32.9535	0.507964	0.931811	10.1484	-1
273	117.775	Inf	0.00272826	25.2069	25.2594	25.1543	32.953	0.508425	1.02268	10.1482	-1
273.65	117.95	Inf	0.00273475	25.2138	25.2684	25.1591	32.9533	0.507225	1.03493	10.1483	-1
274.3	118.24	Inf	0.00274124	25.2127	25.2762	25.1492	32.9539	0.508516	0.94429	10.1485	-1
274.95	118.437	Inf	0.00274774	25.2123	25.2736	25.1511	32.954	0.507727	0.996196	10.1485	-1
275.6	118.786	Inf	0.00275424	25.2105	25.2661	25.1549	32.9543	0.508386	1.00103	10.1483	-1
276.25	118.97	Inf	0.00276075	25.2112	25.2674	25.155	32.9534	0.507781	0.978394	10.1485	-1
276.9	119.068	Inf	0.00276723	25.219	25.2732	25.1648	32.9534	0.507717	0.952405	10.1484	-1
277.55	119.286	Inf	0.00277374	25.2074	25.2699	25.145	32.9544	0.508548	1.01378	10.1485	-1
278.2	119.556	Inf	0.00278023	25.203	25.2561	25.1499	32.9544	0.507573	1.0409	10.1488	-1
278.85	119.817	Inf	0.00278672	25.203	25.2545	25.1516	32.9543	0.50836	0.992492	10.1483	-1
279.5	120.17	Inf	0.00279323	25.2183	25.2881	25.1485	32.9554	0.507678	1.0392	10.1484	-1
280.15	120.252	Inf	0.00279974	25.213	25.2678	25.1581	32.9556	0.507319	1.07332	10.1484	-1
280.8	120.41	Inf	0.00280625	25.2039	25.2727	25.1352	32.9552	0.508004	1.02	10.1485	-1
281.45	120.419	Inf	0.00281274	25.2126	25.2709	25.1543	32.9537	0.506195	0.906012	10.1484	-1
282.1	120.552	Inf	0.00281922	25.214	25.2796	25.1484	32.9529	0.507368	0.93827	10.1486	-1
282.75	120.667	Inf	0.00282574	25.1983	25.2524	25.1443	32.955	0.507433	0.919997	10.1484	-1
283.4	120.689	Inf	0.00283223	25.202	25.2753	25.1286	32.953	0.508797	0.906756	10.1483	-1
284.05	120.834	Inf	0.00283872	25.2128	25.2682	25.1573	32.9547	0.507922	0.840872	10.1482	-1
284.7	120.8	Inf	0.00284522	25.2126	25.2526	25.1726	32.9549	0.508242	0.909051	10.1488	-1
285.35	120.795	Inf	0.00285174	25.2012	25.2657	25.1366	32.9547	0.507722	0.889622	10.1485	-1
286	120.795	Inf	0.00285825	25.2076	25.2737	25.1416	32.9535	0.508696	0.81613	10.1484	-1
286.65	120.771	Inf	0.00286471	25.2224	25.2802	25.1647	32.956	0.507192	0.864378	10.1481	-1
287.3	120.783	Inf	0.00287122	25.2163	25.2899	25.1427	32.9554	0.508833	0.902589	10.1479	-1
287.95	120.842	Inf	0.00287772	25.2146	25.2942	25.135	32.9549	0.508288	0.862759	10.1486	-1
288.6	120.755	Inf	0.00288423	25.2049	25.2631	25.1466	32.954	0.507641	0.800358	10.1488	-1
289.25	120.731	Inf	0.0028907	25.2197	25.2691	25.1704	32.956	0.507982	0.803998	10.1488	-1
289.9	120.73	Inf	0.00289726	25.206	25.2655	25.1465	32.9557	0.507551	0.800513	10.148	-1
290.55	120.69	Inf	0.00290375	25.1852	25.2447	25.1257	32.9567	0.507448	0.674005	10.1483	-1
291.2	120.724	Inf	0.00291021	25.1954	25.2701	25.1208	32.9553	0.509163	0.670914	10.1486	-1
291.85	120.73	Inf	0.00291672	25.2033	25.27	25.1365	32.957	0.507432	0.720677	10.1483	-1
292.5	120.656	Inf	0.00292322	25.2124	25.2767	25.148	32.9561	0.507562	0.749996	10.1488	-1
293.15	120.717	Inf	0.00292971	25.2044	25.2692	25.1396	32.9558	0.507715	0.655099	10.1484	-1
293.8	120.508	Inf	0.00293623	25.1984	25.2515	25.1454	32.957	0.507064	0.69327	10.1486	-1
294.45	120.48	Inf	0.0029427	25.2087	25.2658	25.1515	32.956	0.50836	0.745372	10.1487	-1
295.1	120.392	Inf	0.00294918	25.2093	25.2658	25.1528	32.9572	0.507826	0.660056	10.1486	-1
295.75	120.342	Inf	0.00295571	25.1982	25.2541	25.1424	32.9554	0.508085	0.650001	10.1487	-1
296.4	120.302	Inf	0.0029622	25.2129	25.2749	25.1508	32.9557	0.508095	0.675802	10.1481	-1
297.05	120.244	Inf	0.00296871	25.2102	25.2742	25.1461	32.956	0.508227	0.725446	10.1484	-1
297.7	120.115	Inf	0.0029752	25.1936	25.2604	25.1267	32.9563	0.507942	0.641149	10.1484	-1
298.35	119.947	Inf	0.00298168	25.2064	25.2722	25.1405	32.9554	0.507974	0.629197	10.1484	-1
299	119.888	Inf	0.00298821	25.2136	25.2706	25.1566	32.9568	0.507341	0.620728	10.1484	-1
299.65	119.796	Inf	0.00299468	25.2154	25.2772	25.1537	32.9581	0.507692	0.580232	10.1486	-1
300.3	119.636	Inf	0.00300123	25.2026	25.2589	25.1463	32.9571	0.508755	0.520663	10.1483	-1
300.95	119.517	Inf	0.0030077	25.2005	25.2721	25.129	32.956	0.508339	0.529746	10.1488	-1
301.6	119.402	Inf	0.00301417	25.2161	25.2774	25.1549	32.9562	0.50728	0.617163	10.1488	-1
302.25	119.35	Inf	0.00302071	25.2069	25.2693	25.1445	32.9564	0.507309	0.581506	10.1486	-1
302.9	119.243	Inf	0.00302719	25.1948	25.2617	25.128	32.9575	0.507168	0.55809	10.1488	-1
303.55	119.104	Inf	0.00303368	25.2051	25.2693	25.141	32.9573	0.507544	0.572148	10.1486	-1
304.2	118.916	Inf	0.00304019	25.2269	25.2887	25.1651	32.9563	0.508238	0.606331	10.1485	-1
304.85	118.774	Inf	0.0030467	25.2048	25.2724	25.1371	32.9572	0.507477	0.531697	10.1486	-1
305.5	118.695	Inf	0.0030532	25.2012	25.26	25.1424	32.9565	0.507338	0.518206	10.1485	-1
306.15	118.597	Inf	0.00305969	25.2066	25.2626	25.1505	32.9575	0.508418	0.576791	10.1487	-1
306.8	118.5	Inf	0.0030662	25.2118	25.2692	25.1545	32.9571	0.506893	0.562697	10.1485	-1
307.45	118.445	Inf	0.0030727	25.2065	25.2741	25.1388	32.9569	0.507386	0.494121	10.1483	-1
308.1	118.248	Inf	0.00307916	25.1972	25.2589	25.1354	32.9568	0.507318	0.439786	10.1485	-1
308.75	118.166	Inf	0.00308569	25.1983	25.2687	25.128	32.957	0.506665	0.509774	10.1481	-1
309.4	118.149	Inf	0.00309218	25.2124	25.2736	25.1512	32.958	0.507316	0.472502	10.1482	-1
310.05	117.944	Inf	0.00309867	25.2225	25.2841	25.1609	32.9563	0.506881	0.420225	10.1484	-1
310.7	117.895	Inf	0.00310518	25.2162	25.2746	25.1578	32.9588	0.507387	0.498824	10.1487	-1
311.35	117.783	Inf	0.00311165	25.2006	25.2599	25.1413	32.9575	0.507599	0.521288	10.1487	-1
312	117.861	Inf	0.00311816	25.2019	25.2671	25.1367	32.959	0.507501	0.492384	10.1487	-1
312.65	117.76	Inf	0.00312469	25.2026	25.2585	25.1466	32.9576	0.507345	0.494658	10.1485	-1
313.3	117.734	Inf	0.00313116	25.2032	25.2693	25.1371	32.9553	0.506625	0.552971	10.1484	-1
313.95	117.694	Inf	0.00313769	25.215	25.2824	25.1476	32.9565	0.506755	0.537878	10.1486	-1
314.6	117.618	Inf	0.00314418	25.1943	25.251	25.1376	32.9596	0.506854	0.439786	10.1485	-1
315.25	117.391	Inf	0.00315067	25.1986	25.2662	25.1311	32.9585	0.50689	0.447537	10.1487	-1
315.9	117.236	Inf	0.00315717	25.2079	25.2765	25.1393	32.9582	0.506854	0.449909	10.1481	-1
316.55	117.106	Inf	0.00316367	25.2251	25.2919	25.1583	32.9579	0.50716	0.429695	10.1484	-1
317.2	117.176	Inf	0.00317019	25.2094	25.2659	25.1529	32.9569	0.508001	0.385575	10.1486	-1
317.85	117.14	Inf	0.00317666	25.2015	25.2464	25.1565	32.9581	0.507222	0.446229	10.1487	-1
318.5	117.054	Inf	0.00318317	25.2237	25.2831	25.1643	32.9583	0.507042	0.493065	10.1488	-1
319.15	116.909	Inf	0.00318966	25.2067	25.2694	25.1439	32.9585	0.506827	0.507299	10.1484	-1
319.8	116.801	Inf	0.00319615	25.2069	25.2799	25.1339	32.9607	0.507467	0.471774	10.1484	-1
320.45	116.683	Inf	0.00320266	25.1948	25.2481	25.1415	32.9554	0.507455	0.57049	10.1486	-1
321.1	116.498	Inf	0.00320917	25.216	25.2794	25.1527	32.9589	0.507764	0.600482	10.1484	-1
321.75	116.441	Inf	0.00321566	25.1955	25.2584	25.1325	32.9595	0.507039	0.501079	10.149	-1
322.4	116.459	Inf	0.0032221	25.2034	25.2589	25.1479	32.9585	0.507197	0.54591	10.1485	-1
323.05	116.162	Inf	0.00322866	25.2048	25.2722	25.1375	32.9597	0.507759	0.523136	10.1488	-1
323.7	115.986	Inf	0.00323512	25.2092	25.261	25.1574	32.9598	0.507616	0.466876	10.1488	-1
324.35	115.854	Inf	0.0032416	25.2009	25.2672	25.1345	32.9576	0.50583	0.396502	10.1482	-1
325	115.77	Inf	0.00324808	25.183	25.2351	25.131	32.9593	0.508586	0.466636	10.1486	-1
325.65	115.498	Inf	0.00325459	25.204	25.2559	25.152	32.9594	0.506864	0.536154	10.1484	-1
326.3	115.397	Inf	0.00326109	25.204	25.2595	25.1485	32.9563	0.508612	0.484738	10.1488	-1
326.95	115.314	Inf	0.00326758	25.2026	25.2741	25.1311	32.9592	0.508004	0.491927	10.1486	-1
327.6	115.09	Inf	0.00327408	25.1955	25.2562	25.1347	32.9589	0.507524	0.546844	10.1489	-1
328.25	115.084	Inf	0.0032806	25.2138	25.2619	25.1657	32.9589	0.507185	0.514437	10.1491	-1
328.9	114.657	Inf	0.00328707	25.2168	25.2633	25.1703	32.9614	0.507136	0.442152	10.1485	-1
329.55	114.502	Inf	0.0032936	25.2129	25.2771	25.1487	32.959	0.506679	0.448184	10.1488	-1
330.2	114.258	Inf	0.00330009	25.2155	25.2671	25.1638	32.9582	0.507203	0.539959	10.1486	-1
330.85	113.936	Inf	0.00330659	25.2031	25.2667	25.1395	32.9579	0.506955	0.525548	10.1488	-1
331.5	113.781	Inf	0.00331308	25.205	25.2565	25.1534	32.9589	0.507106	0.459887	10.1479	-1
332.15	113.307	Inf	0.00331958	25.205	25.2585	25.1516	32.9578	0.507094	0.464418	10.1484	-1
332.8	112.965	Inf	0.00332609	25.2134	25.2828	25.1441	32.9602	0.507229	0.455441	10.1483	-1
333.45	112.427	Inf	0.00333258	25.2108	25.2718	25.1499	32.9593	0.507157	0.379836	10.1486	-1
334.1	26.6199	25.9913	0.00333902	25.2015	25.2749	25.128	32.9613	0.507375	0.116629	10.1467	-1
334.75	26.6126	25.9417	0.00334556	25.2104	25.2781	25.1427	32.9597	0.508015	0.229181	10.1467	-1
335.4	26.5345	25.9436	0.00335206	25.2155	25.2687	25.1624	32.9614	0.508797	0.2783	10.1465	-1
336.05	26.5	25.9403	0.00335857	25.221	25.293	25.149	32.9617	0.507915	0.224063	10.1466	-1
336.65	26.547	25.9306	0.00336456	25.2041	25.2602	25.148	32.9618	0.508822	0.258352	10.1463	-1