File: data/ReportRaw/Resin_TXT/Unknown_Resin/Tensile_Test_05.txt
Program Started: Tue, Jul 16, 2024	1:13:32 PM	System: µTS4
Test Notes:

User displacement limits active. Low limit -20.000E-3 m, high limit 20.000E-3 m.
User load limits active. Low limit -1.600E+3 N, high limit 1.600E+3 N.

No closed loop control sensors in this test.

Test Segments:
 1. Ramp in Drive Control, +5.00E-3m Amplitude, 10.00E-6 m/s Speed. Sampling at 20.000 Hz, Lowpass Filter Cutoff of 100.000 Hz

Specimen Thickness (m): 	1.550E-3
Specimen Width (m): 	1.910E-3
Specimen Diameter (m): 	0.000E+0
Specimen Area (m^2): 	2.960E-6
Specimen Length (m): 	5.000E-3

Test Started: Tue, Jul 16, 2024	2:57:26 PM
Time (s)	LCFS1600 (N)	LCW1600 (N)	ECATENC (m)	SpecTemp (C)	AirTemp (C)	OutletTemp (C)	JTemp1600 (C)	GTemp1600 (C)	CUR (A)	Ve (V)	Trigger (#)
0.0000000000E+0	0.0502537	-0.0173593	-2.57587e-11	25.1337	25.1722	25.0953	33.0062	0.506713	0.0805993	10.1476	-1
0.45	0.186861	0.191405	3.81026e-06	25.1327	25.1789	25.0865	33.0066	0.506311	0.206642	10.1477	-1
0.9	0.348121	0.282752	8.28755e-06	25.1566	25.2032	25.11	33.0057	0.506827	0.175444	10.1477	-1
1.35	0.433869	0.41881	1.28034e-05	25.1501	25.1884	25.1118	33.0061	0.506195	0.117372	10.1476	-1
1.8	0.539272	0.527868	1.72788e-05	25.1512	25.2066	25.0959	33.0068	0.506967	0.0736481	10.1474	-1
2.25	0.651028	0.663807	2.1771e-05	25.1417	25.1875	25.096	33.0056	0.506099	0.149297	10.1476	-1
2.7	0.739602	0.792894	2.62781e-05	25.1398	25.1989	25.0807	33.0048	0.506775	0.181411	10.1476	-1
3.15	1.0455	0.938339	3.07757e-05	25.1578	25.2062	25.1095	33.0067	0.506754	0.180659	10.1477	-1
3.6	1.17836	1.08714	3.529e-05	25.1404	25.1975	25.0833	33.0082	0.505564	0.14182	10.1475	-1
4.05	1.2406	1.21183	3.97782e-05	25.146	25.1941	25.0979	33.0063	0.506647	0.138591	10.148	-1
4.5	1.4813	1.36485	4.42719e-05	25.1336	25.1895	25.0776	33.0074	0.505721	0.152232	10.1479	-1
4.95	1.59974	1.51271	4.87674e-05	25.1404	25.1992	25.0816	33.0061	0.505954	0.195068	10.1481	-1
5.4	1.63092	1.69821	5.32666e-05	25.1535	25.2048	25.1023	33.0072	0.506027	0.195158	10.1475	-1
5.85	1.86114	1.84301	5.77882e-05	25.1345	25.1892	25.0799	33.0063	0.506093	0.151543	10.1477	-1
6.3	2.11386	2.03966	6.22711e-05	25.1447	25.1918	25.0975	33.0061	0.506946	0.129227	10.1479	-1
6.75	2.20744	2.20025	6.67532e-05	25.1369	25.1905	25.0833	33.0059	0.506149	0.153758	10.1479	-1
7.2	2.44103	2.38949	7.13045e-05	25.149	25.1942	25.1039	33.0068	0.506399	0.200602	10.1478	-1
7.65	2.5783	2.55104	7.57654e-05	25.1331	25.1804	25.0858	33.0068	0.50696	0.233936	10.1477	-1
8.1	2.77756	2.72385	8.02633e-05	25.1361	25.183	25.0891	33.0055	0.506062	0.200425	10.1479	-1
8.55	2.9779	2.9237	8.47722e-05	25.1325	25.1828	25.0823	33.0068	0.506657	0.180799	10.1481	-1
9	3.18777	3.10566	8.92467e-05	25.1422	25.1848	25.0996	33.0059	0.506046	0.147035	10.1479	-1
9.45	3.36532	3.32246	9.37545e-05	25.1541	25.1969	25.1113	33.0072	0.505912	0.182414	10.1478	-1
9.9	3.53003	3.5096	9.82623e-05	25.1286	25.1787	25.0784	33.0057	0.506748	0.175258	10.1481	-1
10.35	3.83793	3.74856	0.000102774	25.1429	25.1952	25.0906	33.0077	0.506164	0.161737	10.1476	-1
10.8	4.06013	3.96552	0.000107267	25.1337	25.1813	25.0862	33.0069	0.505486	0.100511	10.1479	-1
11.25	4.39784	4.23112	0.000111754	25.1403	25.1923	25.0883	33.0063	0.505966	0.0734403	10.1479	-1
11.7	4.57169	4.4658	0.000116239	25.1419	25.1817	25.1022	33.0064	0.50675	0.116072	10.1476	-1
12.15	4.71342	4.72477	0.000120754	25.1448	25.1955	25.094	33.0071	0.506428	0.177395	10.1477	-1
12.6	4.9695	4.97631	0.000125253	25.136	25.1851	25.087	33.0065	0.506738	0.203552	10.1479	-1
13.05	5.20833	5.128	0.000129758	25.1337	25.1827	25.0847	33.0059	0.507218	0.174916	10.1479	-1
13.5	5.25153	5.25424	0.000134256	25.1373	25.1872	25.0873	33.0073	0.506535	0.188417	10.1478	-1
13.95	5.63356	5.52682	0.000138751	25.1495	25.1913	25.1076	33.0075	0.507279	0.178983	10.1479	-1
14.4	5.89167	5.82075	0.000143235	25.1348	25.1828	25.0869	33.0065	0.506478	0.234949	10.1482	-1
14.85	6.15566	6.1008	0.000147742	25.1443	25.197	25.0915	33.006	0.505577	0.250025	10.1477	-1
15.3	6.48996	6.40318	0.000152267	25.1367	25.1846	25.0888	33.0061	0.506108	0.196782	10.1475	-1
15.75	6.75181	6.6871	0.000156744	25.147	25.1932	25.1009	33.0063	0.506612	0.176518	10.1477	-1
16.2	7.03946	6.98116	0.000161242	25.1398	25.1857	25.0938	33.0067	0.505718	0.156277	10.1478	-1
16.65	7.34453	7.31369	0.000165738	25.1379	25.1923	25.0835	33.0061	0.505584	0.180613	10.1478	-1
17.1	7.67272	7.63405	0.000170249	25.1356	25.1894	25.0817	33.0064	0.505767	0.204247	10.1479	-1
17.55	8.00546	7.98168	0.000174748	25.1333	25.1724	25.0941	33.0072	0.505898	0.197785	10.1477	-1
18	8.33925	8.28246	0.000179248	25.1399	25.1818	25.0981	33.0067	0.505612	0.153075	10.1479	-1
18.45	8.66475	8.62925	0.00018375	25.1403	25.1985	25.0821	33.006	0.506849	0.129659	10.148	-1
18.9	9.16823	8.96679	0.000188243	25.1416	25.1903	25.0928	33.0059	0.505322	0.164657	10.148	-1
19.35	9.3331	9.32789	0.000192736	25.144	25.1903	25.0977	33.006	0.506893	0.182557	10.1483	-1
19.8	9.72927	9.68496	0.00019729	25.1236	25.1806	25.0666	33.0078	0.506454	0.159735	10.1482	-1
20.25	10.0284	10.0238	0.000201772	25.144	25.1844	25.1036	33.0073	0.506234	0.135039	10.148	-1
20.7	10.3785	10.3955	0.00020628	25.1317	25.1831	25.0802	33.007	0.506007	0.116848	10.1479	-1
21.15	10.7862	10.7401	0.000210727	25.1325	25.1745	25.0904	33.0062	0.506571	0.137927	10.1482	-1
21.6	11.0401	11.1226	0.000215219	25.1246	25.1793	25.0699	33.0077	0.505921	0.206641	10.1481	-1
22.05	11.5316	11.4858	0.000219766	25.1385	25.1841	25.0928	33.0071	0.505932	0.193061	10.1486	-1
22.5	11.8689	11.851	0.000224278	25.1496	25.2076	25.0917	33.0076	0.505252	0.196177	10.1483	-1
22.95	12.2729	12.2258	0.000228788	25.1224	25.1731	25.0718	33.0074	0.506325	0.177773	10.1484	-1
23.4	12.5853	12.5871	0.000233285	25.1546	25.19	25.1192	33.0062	0.50686	0.194651	10.1482	-1
23.85	12.8706	12.9488	0.000237776	25.1365	25.1588	25.1143	33.007	0.505583	0.23568	10.1485	-1
24.3	13.3649	13.336	0.000242283	25.1301	25.1734	25.0867	33.0071	0.505589	0.254481	10.1482	-1
24.75	13.8169	13.706	0.000246791	25.1282	25.1702	25.0863	33.007	0.506177	0.239722	10.1479	-1
25.2	14.0126	14.0565	0.000251289	25.1435	25.1827	25.1043	33.0068	0.505937	0.183403	10.148	-1
25.65	14.3843	14.4014	0.000255776	25.1337	25.1881	25.0793	33.0067	0.505158	0.176085	10.1482	-1
26.1	14.8259	14.8012	0.000260281	25.1418	25.189	25.0947	33.0072	0.506348	0.20831	10.1486	-1
26.55	15.1953	15.1327	0.000264792	25.1254	25.1687	25.0821	33.008	0.506136	0.225704	10.1481	-1
27	15.6522	15.5262	0.000269276	25.1525	25.1958	25.1092	33.0086	0.50615	0.226353	10.1484	-1
27.45	15.9538	15.879	0.000273766	25.1311	25.1793	25.0829	33.0091	0.504842	0.172099	10.1484	-1
27.9	16.2479	16.2851	0.000278285	25.1283	25.1889	25.0677	33.0081	0.50672	0.143696	10.1488	-1
28.35	16.6456	16.6681	0.000282778	25.1229	25.1662	25.0796	33.0085	0.506745	0.186518	10.1485	-1
28.8	17.0871	17.0885	0.000287283	25.1301	25.1781	25.0821	33.0066	0.506388	0.237877	10.1486	-1
29.25	17.6349	17.5101	0.000291781	25.1394	25.1848	25.0939	33.0077	0.50712	0.232324	10.1483	-1
29.7	17.8534	17.9158	0.000296276	25.1181	25.1875	25.0487	33.0073	0.505437	0.210797	10.1482	-1
30.15	18.2958	18.2884	0.000300769	25.1524	25.1983	25.1065	33.0078	0.505032	0.191914	10.1483	-1
30.6	18.7906	18.7516	0.000305262	25.1388	25.1825	25.0951	33.0058	0.505599	0.217351	10.1487	-1
31.05	19.2743	19.1905	0.000309775	25.1488	25.1992	25.0985	33.0069	0.506789	0.272689	10.1481	-1
31.5	19.6719	19.6812	0.000314294	25.1211	25.1762	25.0661	33.0071	0.505668	0.29906	10.1487	-1
31.95	20.1945	20.1281	0.000318785	25.1339	25.1802	25.0876	33.0068	0.506527	0.278868	10.1488	-1
32.4	20.64	20.5776	0.000323272	25.1266	25.1712	25.0819	33.0075	0.505317	0.246067	10.1484	-1
32.85	21.2148	21.0499	0.000327763	25.1105	25.1559	25.0652	33.0062	0.507033	0.260658	10.1487	-1
33.3	21.4898	21.5211	0.000332282	25.1444	25.1905	25.0983	33.0065	0.505562	0.256187	10.1486	-1
33.75	22.0745	21.998	0.000336769	25.116	25.1637	25.0683	33.0058	0.506082	0.295703	10.1488	-1
34.2	22.5085	22.4439	0.000341268	25.1295	25.1879	25.071	33.0074	0.505616	0.289858	10.1489	-1
34.65	22.9318	22.9543	0.000345766	25.1462	25.1955	25.097	33.0073	0.50562	0.248282	10.1489	-1
35.1	23.5194	23.4596	0.000350263	25.1379	25.1907	25.0851	33.0065	0.505984	0.213201	10.1489	-1
35.55	23.9782	23.9615	0.000354749	25.1542	25.1947	25.1137	33.0076	0.505235	0.238455	10.149	-1
36	24.4965	24.4305	0.000359257	25.1238	25.1588	25.0887	33.0072	0.505544	0.284269	10.1489	-1
36.45	24.9482	24.9103	0.000363762	25.1409	25.1894	25.0924	33.0077	0.507017	0.294472	10.1487	-1
36.9	25.4657	25.3878	0.000368269	25.1261	25.1573	25.0948	33.0054	0.505626	0.232885	10.1489	-1
37.35	25.9875	25.8703	0.00037276	25.1128	25.1421	25.0836	33.0063	0.506685	0.224806	10.1489	-1
37.8	26.4411	26.4097	0.000377246	25.1366	25.1937	25.0795	33.0071	0.505474	0.232823	10.1493	-1
38.25	26.9679	26.9422	0.000381758	25.1219	25.1712	25.0726	33.0079	0.505389	0.266685	10.1488	-1
38.7	27.6477	27.5319	0.000386259	25.1361	25.1799	25.0923	33.0072	0.503713	0.27317	10.1492	-1
39.15	28.1543	28.0561	0.000390759	25.117	25.1629	25.0711	33.0081	0.506442	0.251829	10.1493	-1
39.6	28.6276	28.4992	0.000395253	25.1365	25.1906	25.0824	33.0079	0.506175	0.237542	10.1493	-1
40.05	28.8899	28.8126	0.000399748	25.1342	25.1797	25.0887	33.007	0.507274	0.252671	10.1493	-1
40.5	29.2314	29.1856	0.000404239	25.1248	25.1681	25.0815	33.0073	0.505997	0.305432	10.1492	-1
40.95	29.7335	29.6765	0.000408748	25.1434	25.1973	25.0895	33.0071	0.505499	0.330097	10.1491	-1
41.4	30.1316	30.1297	0.000413286	25.1088	25.1612	25.0564	33.0067	0.505511	0.310022	10.149	-1
41.85	30.7252	30.6275	0.000417763	25.1297	25.1948	25.0647	33.0066	0.506137	0.25511	10.1491	-1
42.3	31.1182	Inf	0.00042225	25.1568	25.1987	25.1149	33.0078	0.505989	0.24732	10.1493	-1
42.75	31.5412	Inf	0.000426738	25.1258	25.1726	25.0789	33.0066	0.505573	0.260678	10.1496	-1
43.2	32.1861	Inf	0.000431252	25.1202	25.1639	25.0765	33.0079	0.505744	0.27899	10.1491	-1
43.65	32.5432	Inf	0.000435758	25.1188	25.161	25.0766	33.0069	0.50556	0.233388	10.1493	-1
44.1	33.122	Inf	0.000440245	25.1299	25.1823	25.0775	33.0075	0.505558	0.190055	10.1493	-1
44.55	33.6205	Inf	0.000444743	25.1379	25.1848	25.0909	33.0073	0.505627	0.147532	10.1495	-1
45	34.1773	Inf	0.000449247	25.1276	25.1728	25.0823	33.0067	0.505864	0.207642	10.149	-1
45.45	34.6591	Inf	0.000453749	25.1112	25.1537	25.0687	33.0078	0.505796	0.269955	10.1493	-1
45.9	35.1666	Inf	0.000458226	25.1339	25.1755	25.0923	33.0063	0.505685	0.28776	10.1492	-1
46.35	35.6666	Inf	0.00046273	25.1367	25.1815	25.0919	33.0077	0.505195	0.274585	10.1493	-1
46.8	36.0025	Inf	0.000467254	25.124	25.1629	25.0851	33.0074	0.505869	0.267392	10.1494	-1
47.25	36.4668	Inf	0.00047172	25.1327	25.1836	25.0818	33.0081	0.50542	0.299187	10.1494	-1
47.7	37.022	Inf	0.000476222	25.1493	25.184	25.1147	33.0072	0.504822	0.322443	10.1493	-1
48.15	37.5706	Inf	0.000480741	25.1203	25.1756	25.0649	33.0072	0.506503	0.347491	10.1495	-1
48.6	38.0105	Inf	0.000485247	25.1344	25.1949	25.0739	33.008	0.505427	0.294064	10.1496	-1
49.05	38.5058	Inf	0.000489751	25.1217	25.1791	25.0642	33.0082	0.505388	0.220957	10.1499	-1
49.5	38.9834	Inf	0.000494251	25.129	25.1725	25.0855	33.0067	0.50649	0.226156	10.1499	-1
49.95	39.4045	Inf	0.000498723	25.1154	25.1576	25.0731	33.0066	0.505197	0.251814	10.1494	-1
50.4	39.8004	Inf	0.000503221	25.1232	25.1659	25.0805	33.0067	0.50466	0.321027	10.1495	-1
50.85	40.3362	Inf	0.000507746	25.1321	25.172	25.0921	33.0066	0.505356	0.242629	10.1496	-1
51.3	40.7642	Inf	0.000512243	25.1411	25.1817	25.1005	33.007	0.505749	0.211679	10.1495	-1
51.75	41.1472	Inf	0.00051673	25.1343	25.1858	25.0829	33.0073	0.505948	0.213744	10.1488	-1
52.2	41.553	Inf	0.000521217	25.116	25.1658	25.0662	33.0061	0.50533	0.262041	10.1498	-1
52.65	41.9038	Inf	0.000525716	25.1204	25.1652	25.0755	33.0089	0.504703	0.307825	10.1497	-1
53.1	42.3625	Inf	0.000530222	25.1222	25.1738	25.0707	33.0069	0.506137	0.224176	10.1496	-1
53.55	42.7775	Inf	0.000534726	25.131	25.1843	25.0777	33.0082	0.505067	0.205537	10.1489	-1
54	43.2226	Inf	0.000539236	25.1205	25.167	25.0741	33.0082	0.505634	0.163947	10.1495	-1
54.45	43.5742	Inf	0.000543738	25.1278	25.1707	25.085	33.007	0.504952	0.214335	10.1499	-1
54.9	43.9703	Inf	0.000548232	25.1116	25.1566	25.0666	33.0076	0.506332	0.256221	10.1496	-1
55.35	44.4355	Inf	0.000552731	25.126	25.1686	25.0834	33.0074	0.504515	0.290784	10.1496	-1
55.8	44.7958	Inf	0.000557217	25.131	25.1753	25.0866	33.0072	0.504734	0.281267	10.1496	-1
56.25	45.3635	Inf	0.000561726	25.1299	25.175	25.0849	33.0067	0.504679	0.272711	10.1498	-1
56.7	45.8857	Inf	0.000566229	25.1151	25.1526	25.0776	33.0072	0.505508	0.243834	10.1498	-1
57.15	46.3934	Inf	0.000570703	25.1344	25.1854	25.0833	33.0073	0.504818	0.292848	10.1495	-1
57.6	46.6519	Inf	0.000575211	25.1186	25.1592	25.078	33.0062	0.505916	0.336667	10.1494	-1
58.05	47.155	Inf	0.000579742	25.1364	25.1856	25.0872	33.0074	0.505039	0.283205	10.1498	-1
58.5	47.6228	Inf	0.000584221	25.1135	25.1712	25.0559	33.008	0.504958	0.22248	10.1497	-1
58.95	48.1424	Inf	0.000588707	25.118	25.1694	25.0665	33.0069	0.505679	0.214464	10.1498	-1
59.4	48.5013	Inf	0.00059321	25.1277	25.1786	25.0768	33.0095	0.505414	0.255289	10.15	-1
59.85	48.8388	Inf	0.000597727	25.1135	25.166	25.0611	33.0071	0.505775	0.282077	10.1495	-1
60.3	49.3919	Inf	0.000602205	25.1306	25.1801	25.0811	33.0072	0.505547	0.261727	10.1495	-1
60.75	49.7279	Inf	0.000606728	25.1237	25.1627	25.0847	33.0082	0.505959	0.208692	10.1497	-1
61.2	50.3345	Inf	0.000611207	25.1114	25.1536	25.0692	33.0072	0.505929	0.199232	10.1497	-1
61.65	50.8741	Inf	0.000615704	25.13	25.1786	25.0814	33.0065	0.504978	0.237591	10.1493	-1
62.1	51.5166	Inf	0.000620171	25.1306	25.1801	25.081	33.0085	0.506692	0.253184	10.1496	-1
62.55	52.102	Inf	0.000624724	25.1372	25.184	25.0905	33.0067	0.505447	0.303826	10.1496	-1
63	52.5143	Inf	0.000629222	25.1189	25.1592	25.0786	33.0066	0.505692	0.244546	10.1496	-1
63.45	53.0263	Inf	0.000633706	25.1323	25.1811	25.0835	33.0074	0.505891	0.240028	10.1492	-1
63.9	53.529	Inf	0.000638191	25.1313	25.1691	25.0935	33.0067	0.505201	0.241575	10.1501	-1
64.35	54.0843	Inf	0.000642713	25.1202	25.1668	25.0737	33.0079	0.506446	0.341787	10.1496	-1
64.8	54.5319	Inf	0.000647216	25.124	25.178	25.07	33.0074	0.505531	0.394336	10.1497	-1
65.25	54.9637	Inf	0.000651698	25.1259	25.1776	25.0742	33.0081	0.505256	0.358529	10.1497	-1
65.7	55.4627	Inf	0.000656211	25.1293	25.1845	25.0741	33.0084	0.505598	0.307766	10.1495	-1
66.15	56.1446	Inf	0.000660716	25.1262	25.1746	25.0777	33.0079	0.504957	0.297236	10.1496	-1
66.6	56.6202	Inf	0.000665197	25.1288	25.1687	25.0888	33.0079	0.506113	0.338328	10.1495	-1
67.05	57.3327	Inf	0.000669684	25.1112	25.1545	25.0679	33.0076	0.505553	0.376749	10.1495	-1
67.5	57.8687	Inf	0.000674208	25.1169	25.1598	25.0741	33.008	0.505674	0.329814	10.1494	-1
67.95	58.4229	Inf	0.000678711	25.1213	25.1667	25.0759	33.0072	0.50563	0.27828	10.1493	-1
68.4	58.9818	Inf	0.000683204	25.1354	25.1706	25.1002	33.0077	0.504937	0.243026	10.1492	-1
68.85	59.5398	Inf	0.000687691	25.1186	25.1573	25.0798	33.0073	0.505526	0.277635	10.1491	-1
69.3	60.0697	Inf	0.000692174	25.1241	25.1779	25.0703	33.0085	0.505024	0.357727	10.1498	-1
69.75	60.7124	Inf	0.000696693	25.1182	25.1699	25.0666	33.0078	0.506427	0.379943	10.1496	-1
70.2	61.122	Inf	0.000701202	25.1359	25.1869	25.0849	33.0088	0.505576	0.347499	10.1496	-1
70.65	61.6996	Inf	0.000705701	25.1188	25.1594	25.0782	33.0081	0.505416	0.305827	10.1493	-1
71.1	62.4151	Inf	0.000710188	25.1345	25.1842	25.0849	33.0065	0.506005	0.320665	10.1495	-1
71.55	62.9802	Inf	0.000714673	25.1125	25.1561	25.0689	33.0071	0.506131	0.374859	10.1494	-1
72	63.633	Inf	0.00071919	25.1188	25.161	25.0766	33.0072	0.505474	0.36736	10.1493	-1
72.45	64.2518	Inf	0.000723708	25.1275	25.1734	25.0815	33.0094	0.505217	0.364658	10.1494	-1
72.9	64.8957	Inf	0.000728205	25.1241	25.169	25.0793	33.0077	0.505364	0.31473	10.1496	-1
73.35	65.439	Inf	0.000732677	25.1304	25.1705	25.0904	33.0078	0.505927	0.328447	10.1495	-1
73.8	66.1633	Inf	0.000737168	25.1251	25.1752	25.075	33.0064	0.505303	0.410213	10.1497	-1
74.25	66.7202	Inf	0.00074169	25.126	25.1709	25.0812	33.008	0.506061	0.432778	10.15	-1
74.7	67.249	Inf	0.000746201	25.1279	25.1673	25.0885	33.0081	0.505908	0.433538	10.1498	-1
75.15	67.8371	Inf	0.00075071	25.1281	25.1676	25.0885	33.0089	0.505717	0.37207	10.1496	-1
75.6	68.4349	Inf	0.000755192	25.1278	25.1691	25.0865	33.0073	0.505609	0.359226	10.1499	-1
76.05	68.942	Inf	0.000759694	25.1186	25.1665	25.0706	33.0083	0.505117	0.367213	10.1499	-1
76.5	69.5736	Inf	0.000764169	25.1126	25.157	25.0682	33.0087	0.505229	0.396626	10.1498	-1
76.95	70.1025	Inf	0.000768691	25.1262	25.1706	25.0819	33.0075	0.505928	0.365582	10.1497	-1
77.4	70.8316	Inf	0.000773199	25.1186	25.1712	25.066	33.0081	0.505141	0.306527	10.1494	-1
77.85	71.2956	Inf	0.000777687	25.1358	25.1805	25.0912	33.0075	0.505733	0.291123	10.1494	-1
78.3	71.9536	Inf	0.000782179	25.1178	25.1652	25.0703	33.0089	0.50455	0.322085	10.1494	-1
78.75	72.4947	Inf	0.00078664	25.1293	25.1714	25.0872	33.0077	0.504745	0.416564	10.1498	-1
79.2	73.162	Inf	0.00079119	25.1218	25.1648	25.0788	33.0081	0.505723	0.444923	10.1496	-1
79.65	73.7084	Inf	0.000795689	25.1266	25.1683	25.0848	33.0074	0.504806	0.429913	10.1495	-1
80.1	74.3459	Inf	0.000800168	25.1282	25.1729	25.0836	33.009	0.50506	0.409114	10.1495	-1
80.55	74.9907	Inf	0.000804673	25.125	25.1665	25.0836	33.0079	0.50552	0.475095	10.1496	-1
81	75.4834	Inf	0.000809174	25.1161	25.1522	25.08	33.0081	0.506047	0.490535	10.1497	-1
81.45	76.1272	Inf	0.000813666	25.1208	25.1633	25.0784	33.0082	0.505414	0.507053	10.1496	-1
81.9	76.7291	Inf	0.000818149	25.1264	25.1709	25.0819	33.0079	0.504988	0.498621	10.1497	-1
82.35	77.3185	Inf	0.000822683	25.1119	25.1622	25.0616	33.0082	0.50512	0.445509	10.1495	-1
82.8	77.866	Inf	0.000827177	25.1202	25.1641	25.0763	33.0075	0.505682	0.443366	10.1496	-1
83.25	78.3986	Inf	0.00083163	25.1315	25.178	25.085	33.0078	0.505635	0.517532	10.1497	-1
83.7	78.9867	Inf	0.000836167	25.1133	25.1616	25.0649	33.0089	0.505187	0.557144	10.1492	-1
84.15	79.5743	Inf	0.000840653	25.1202	25.1615	25.0789	33.0089	0.504929	0.569832	10.1495	-1
84.6	80.087	Inf	0.000845183	25.1218	25.1703	25.0733	33.0079	0.50527	0.521496	10.1497	-1
85.05	80.6922	Inf	0.000849669	25.1262	25.1709	25.0814	33.0079	0.50478	0.470533	10.1495	-1
85.5	81.1218	Inf	0.000854145	25.131	25.1894	25.0727	33.0093	0.504452	0.516351	10.1496	-1
85.95	81.6478	Inf	0.000858678	25.1112	25.1582	25.0641	33.0083	0.504318	0.526786	10.1494	-1
86.4	82.2762	Inf	0.000863156	25.1205	25.1764	25.0647	33.0073	0.506349	0.528042	10.1494	-1
86.85	82.7459	Inf	0.000867677	25.1217	25.1608	25.0826	33.0083	0.50531	0.482416	10.1495	-1
87.3	83.2079	Inf	0.000872165	25.1204	25.1555	25.0854	33.0074	0.505544	0.497651	10.1499	-1
87.75	83.7697	Inf	0.000876647	25.12	25.17	25.0699	33.0081	0.505069	0.457208	10.1496	-1
88.2	84.3212	Inf	0.000881128	25.1198	25.1636	25.0759	33.009	0.504684	0.557496	10.1494	-1
88.65	84.8318	Inf	0.00088562	25.1384	25.1844	25.0924	33.008	0.505697	0.567256	10.1498	-1
89.1	85.167	Inf	0.000890159	25.1244	25.1593	25.0896	33.0074	0.504721	0.588351	10.1496	-1
89.55	85.7152	Inf	0.00089465	25.1419	25.1924	25.0914	33.0103	0.506326	0.545942	10.1497	-1
90	86.0687	Inf	0.000899088	25.1195	25.1679	25.0711	33.0081	0.504557	0.569954	10.1497	-1
90.45	86.6804	Inf	0.000903623	25.1232	25.1758	25.0707	33.0096	0.504863	0.623328	10.15	-1
90.9	87.2413	Inf	0.000908142	25.1153	25.1735	25.0572	33.0087	0.506138	0.62939	10.1503	-1
91.35	87.6884	Inf	0.000912602	25.1167	25.1617	25.0716	33.0084	0.505109	0.605662	10.1495	-1
91.8	87.9731	Inf	0.000917157	25.1292	25.1766	25.0818	33.0077	0.506625	0.539917	10.1501	-1
92.25	88.3381	Inf	0.000921598	25.1125	25.142	25.0831	33.009	0.505121	0.504904	10.1496	-1
92.7	88.7776	Inf	0.000926128	25.1264	25.1691	25.0837	33.0083	0.504979	0.556175	10.1501	-1
93.15	89.289	Inf	0.000930599	25.1213	25.1592	25.0833	33.0084	0.504393	0.550546	10.1495	-1
93.6	89.6404	Inf	0.000935098	25.123	25.1605	25.0854	33.0075	0.505597	0.551019	10.1496	-1
94.05	90.0751	Inf	0.000939594	25.1127	25.1654	25.0601	33.0091	0.505941	0.536113	10.1494	-1
94.5	90.5027	Inf	0.000944089	25.1157	25.1502	25.0813	33.0084	0.505965	0.491405	10.1499	-1
94.95	91.0123	Inf	0.000948575	25.1108	25.1539	25.0677	33.0084	0.50495	0.536487	10.1496	-1
95.4	91.2129	Inf	0.000953089	25.1191	25.1651	25.073	33.0081	0.505924	0.55903	10.1495	-1
95.85	91.522	Inf	0.000957602	25.1149	25.1593	25.0706	33.0095	0.505185	0.623464	10.1494	-1
96.3	91.8251	Inf	0.000962071	25.1228	25.1627	25.0829	33.0094	0.505131	0.557446	10.1495	-1
96.75	92.2457	Inf	0.000966582	25.1239	25.1709	25.0769	33.0071	0.503894	0.520646	10.1499	-1
97.2	92.4822	Inf	0.000971078	25.1102	25.1519	25.0686	33.0074	0.50472	0.566607	10.1497	-1
97.65	92.8352	Inf	0.000975568	25.0971	25.149	25.0452	33.0097	0.503831	0.612167	10.1496	-1
98.1	93.2229	Inf	0.000980069	25.1168	25.1742	25.0594	33.0072	0.503832	0.660884	10.1492	-1
98.55	93.4978	Inf	0.000984582	25.1382	25.1773	25.0992	33.0107	0.504889	0.663437	10.1497	-1
99	93.8562	Inf	0.00098909	25.1248	25.1611	25.0884	33.0092	0.504625	0.597081	10.1496	-1
99.45	94.0098	Inf	0.00099358	25.1368	25.19	25.0836	33.0086	0.505628	0.582082	10.1495	-1
99.9	94.2402	Inf	0.000998061	25.1121	25.1726	25.0516	33.0087	0.50518	0.605021	10.1494	-1
100.35	94.4946	Inf	0.00100257	25.1173	25.1653	25.0692	33.0093	0.505605	0.643922	10.1497	-1
100.8	94.8177	Inf	0.0010071	25.1411	25.1908	25.0915	33.0089	0.50554	0.618843	10.1497	-1
101.25	95.079	Inf	0.00101157	25.1139	25.1601	25.0678	33.0085	0.50522	0.588918	10.1495	-1
101.7	95.2338	Inf	0.00101606	25.1327	25.1843	25.0811	33.0089	0.505372	0.562964	10.1496	-1
102.15	95.4903	Inf	0.00102056	25.1172	25.1601	25.0742	33.0077	0.504204	0.557617	10.1497	-1
102.6	95.6997	Inf	0.00102508	25.1271	25.1732	25.081	33.0094	0.505235	0.635013	10.1497	-1
103.05	95.8715	Inf	0.00102956	25.1346	25.1793	25.0899	33.0091	0.505334	0.650842	10.1497	-1
103.5	96.0362	Inf	0.00103408	25.1282	25.1758	25.0805	33.009	0.505653	0.675695	10.1497	-1
103.95	96.2447	Inf	0.00103856	25.1247	25.1727	25.0767	33.0098	0.504734	0.609846	10.1497	-1
104.4	96.2832	Inf	0.00104307	25.126	25.165	25.087	33.0087	0.505485	0.652139	10.1496	-1
104.85	96.5397	Inf	0.00104755	25.1307	25.1792	25.0822	33.0111	0.504827	0.680235	10.1497	-1
105.3	96.7599	Inf	0.00105205	25.1127	25.1747	25.0508	33.0091	0.505712	0.675049	10.1494	-1
105.75	96.8977	Inf	0.00105657	25.128	25.1713	25.0846	33.0083	0.505483	0.685321	10.1495	-1
106.2	97.0526	Inf	0.00106107	25.1212	25.174	25.0684	33.009	0.505487	0.624412	10.1493	-1
106.65	97.1189	Inf	0.00106554	25.1279	25.1736	25.0822	33.0086	0.505133	0.611014	10.1498	-1
107.1	97.2141	Inf	0.00107003	25.1335	25.1795	25.0875	33.0089	0.505383	0.705436	10.1495	-1
107.55	97.3717	Inf	0.00107455	25.1148	25.1566	25.0731	33.0077	0.505092	0.747932	10.1494	-1
108	97.3767	Inf	0.00107906	25.1205	25.1769	25.064	33.0094	0.505322	0.711352	10.1495	-1
108.45	97.3544	Inf	0.00108355	25.1283	25.1787	25.078	33.0088	0.50555	0.600486	10.1498	-1
108.9	97.538	Inf	0.00108806	25.1118	25.1552	25.0683	33.0076	0.50571	0.59665	10.1492	-1
109.35	97.6194	Inf	0.00109255	25.1308	25.1678	25.0938	33.0093	0.506185	0.60148	10.1495	-1
109.8	97.7067	Inf	0.00109704	25.1203	25.1675	25.073	33.01	0.504924	0.653174	10.1494	-1
110.25	97.6113	Inf	0.00110154	25.1264	25.1679	25.0849	33.0076	0.504323	0.658375	10.1495	-1
110.7	97.6667	Inf	0.0011061	25.114	25.1607	25.0672	33.0096	0.505265	0.592115	10.1496	-1
111.15	97.7029	Inf	0.00111056	25.121	25.1697	25.0724	33.0094	0.505163	0.546183	10.1497	-1
111.6	97.7939	Inf	0.00111505	25.1316	25.1771	25.086	33.0099	0.505767	0.575253	10.1496	-1
112.05	97.8053	Inf	0.00111954	25.1122	25.1559	25.0685	33.0091	0.504942	0.640178	10.1497	-1
112.5	97.8088	Inf	0.00112408	25.1205	25.1684	25.0726	33.0091	0.504326	0.649131	10.1499	-1
112.95	97.7953	Inf	0.00112862	25.1135	25.1529	25.074	33.01	0.504897	0.635297	10.1496	-1
113.4	97.8099	Inf	0.00113305	25.1349	25.1647	25.1051	33.0109	0.503821	0.629114	10.1496	-1
113.85	97.7145	Inf	0.00113758	25.1249	25.1642	25.0855	33.0102	0.505731	0.611	10.1499	-1
114.3	97.744	Inf	0.0011421	25.1162	25.1498	25.0827	33.0084	0.50527	0.631603	10.1496	-1
114.75	97.7065	Inf	0.00114656	25.1254	25.167	25.0838	33.0096	0.505744	0.62771	10.1497	-1
115.2	97.5809	Inf	0.00115109	25.1199	25.1581	25.0817	33.0125	0.5056	0.604891	10.1498	-1
115.65	97.5376	Inf	0.00115559	25.1132	25.1584	25.068	33.0107	0.505048	0.528556	10.1496	-1
116.1	97.3329	Inf	0.00116008	25.1204	25.1695	25.0713	33.0069	0.50542	0.535554	10.1493	-1
116.55	97.3999	Inf	0.00116458	25.1145	25.1661	25.063	33.0096	0.506037	0.582965	10.1493	-1
117	97.3727	Inf	0.00116908	25.1188	25.1572	25.0804	33.0087	0.506085	0.593004	10.1495	-1
117.45	97.3084	Inf	0.00117361	25.1042	25.166	25.0424	33.0097	0.50567	0.575991	10.1494	-1
117.9	97.177	Inf	0.0011781	25.1228	25.1691	25.0766	33.011	0.506073	0.530411	10.15	-1
118.35	97.2482	Inf	0.00118257	25.1259	25.1602	25.0916	33.009	0.505093	0.508596	10.1497	-1
118.8	97.1882	Inf	0.00118706	25.1264	25.1648	25.0879	33.01	0.505694	0.529018	10.1494	-1
119.25	97.0457	Inf	0.00119158	25.1398	25.1875	25.092	33.0101	0.505453	0.561454	10.1497	-1
119.7	96.9226	Inf	0.00119608	25.1109	25.1556	25.0661	33.0092	0.506043	0.557072	10.1494	-1
120.15	96.7723	Inf	0.00120059	25.114	25.1571	25.0709	33.0096	0.505252	0.49418	10.1493	-1
120.6	96.794	Inf	0.00120507	25.115	25.1473	25.0826	33.0093	0.505696	0.467035	10.1501	-1
121.05	96.6437	Inf	0.00120957	25.1279	25.1742	25.0816	33.0093	0.505384	0.456505	10.1493	-1
121.5	96.4796	Inf	0.00121408	25.1101	25.1545	25.0656	33.0105	0.505835	0.517009	10.1501	-1
121.95	96.5918	Inf	0.00121859	25.1063	25.1423	25.0703	33.0102	0.506116	0.528729	10.15	-1
122.4	96.525	Inf	0.00122309	25.1322	25.1745	25.0898	33.0094	0.504369	0.53224	10.1492	-1
122.85	96.5228	Inf	0.00122758	25.1312	25.1886	25.0739	33.0092	0.505269	0.489814	10.1497	-1
123.3	96.4766	Inf	0.0012321	25.1176	25.1623	25.0729	33.0098	0.505156	0.459768	10.1494	-1
123.75	96.4159	Inf	0.00123657	25.1165	25.1657	25.0672	33.0089	0.504863	0.490684	10.1498	-1
124.2	96.2598	Inf	0.00124107	25.105	25.1436	25.0665	33.0095	0.505348	0.537835	10.1494	-1
124.65	96.4208	Inf	0.00124559	25.121	25.1509	25.091	33.0102	0.504792	0.539931	10.1498	-1
125.1	96.2657	Inf	0.00125005	25.1032	25.1338	25.0726	33.0098	0.504808	0.504136	10.1493	-1
125.55	96.119	Inf	0.00125456	25.11	25.1508	25.0693	33.01	0.505809	0.467047	10.1499	-1
126	96.0364	Inf	0.00125905	25.1161	25.1617	25.0706	33.011	0.505342	0.465532	10.1496	-1
126.45	95.9802	Inf	0.00126358	25.1279	25.1755	25.0802	33.0099	0.505391	0.539075	10.1494	-1
126.9	95.9832	Inf	0.00126808	25.1133	25.1511	25.0755	33.0084	0.505945	0.508618	10.1492	-1
127.35	95.8684	Inf	0.00127258	25.1196	25.1683	25.0709	33.0111	0.505435	0.428523	10.1497	-1
127.8	95.8877	Inf	0.00127707	25.1127	25.1542	25.0713	33.0113	0.505464	0.375834	10.1493	-1
128.25	95.6884	Inf	0.00128159	25.1162	25.1736	25.0589	33.0105	0.504907	0.414144	10.1497	-1
128.7	95.6818	Inf	0.00128606	25.1186	25.1554	25.0819	33.0085	0.505484	0.455833	10.1491	-1
129.15	95.685	Inf	0.00129055	25.1178	25.1582	25.0775	33.0102	0.503852	0.487843	10.1494	-1
129.6	95.6386	Inf	0.00129506	25.1377	25.1767	25.0988	33.0107	0.505686	0.429256	10.1493	-1
130.05	95.4486	Inf	0.00129956	25.1187	25.1576	25.0799	33.0101	0.505416	0.414735	10.1493	-1
130.5	95.3699	Inf	0.00130406	25.1079	25.1302	25.0856	33.0091	0.505993	0.425489	10.1497	-1
130.95	95.2203	Inf	0.00130853	25.1287	25.1699	25.0874	33.0092	0.505995	0.517543	10.1493	-1
131.4	95.0244	Inf	0.00131307	25.1103	25.1519	25.0686	33.0093	0.505077	0.598352	10.1496	-1
131.85	95.0004	Inf	0.00131758	25.1175	25.1586	25.0763	33.0101	0.506674	0.616626	10.1497	-1
132.3	94.9202	Inf	0.00132206	25.1135	25.1561	25.0709	33.0115	0.50577	0.484548	10.1498	-1
132.75	94.6931	Inf	0.00132656	25.1161	25.1637	25.0686	33.0117	0.506021	0.512103	10.1496	-1
133.2	94.7736	Inf	0.00133105	25.1338	25.1784	25.0892	33.0096	0.50584	0.541004	10.1488	-1
133.65	94.59	Inf	0.00133556	25.1139	25.138	25.0898	33.0104	0.505217	0.531799	10.1498	-1
134.1	94.465	Inf	0.00134006	25.1199	25.1619	25.0778	33.0109	0.50497	0.510483	10.1498	-1
134.55	94.2879	Inf	0.00134456	25.108	25.1392	25.0768	33.0099	0.505545	0.481419	10.1498	-1
135	94.3311	Inf	0.00134905	25.1269	25.1621	25.0916	33.0102	0.505829	0.453161	10.1497	-1
135.45	94.0682	Inf	0.00135355	25.1289	25.1771	25.0807	33.0101	0.505075	0.413502	10.1492	-1
135.9	93.9532	Inf	0.00135805	25.1127	25.1632	25.0622	33.0097	0.505889	0.493813	10.1497	-1
136.35	93.738	Inf	0.00136255	25.1267	25.1637	25.0897	33.0111	0.504472	0.50013	10.1497	-1
136.8	93.7144	Inf	0.00136706	25.1094	25.1528	25.0659	33.0117	0.505809	0.44266	10.1496	-1
137.25	93.6169	Inf	0.00137154	25.1271	25.1656	25.0887	33.011	0.504602	0.438972	10.1499	-1
137.7	93.5044	Inf	0.00137604	25.1183	25.1598	25.0768	33.0112	0.507018	0.41261	10.1494	-1
138.15	93.311	Inf	0.00138054	25.1206	25.1617	25.0794	33.0104	0.5059	0.49119	10.1491	-1
138.6	93.464	Inf	0.00138505	25.1177	25.1582	25.0772	33.0084	0.505153	0.493499	10.1495	-1
139.05	93.2441	Inf	0.00138955	25.1192	25.1667	25.0718	33.0112	0.50677	0.490531	10.1495	-1
139.5	93.1917	Inf	0.00139405	25.1298	25.1813	25.0782	33.0103	0.506421	0.461065	10.1493	-1
139.95	92.9451	Inf	0.00139853	25.1092	25.1599	25.0586	33.0093	0.504796	0.451	10.1495	-1
140.4	92.9002	Inf	0.00140304	25.1289	25.1769	25.0809	33.0095	0.504398	0.521717	10.1501	-1
140.85	92.6818	Inf	0.00140754	25.1193	25.1738	25.0648	33.0095	0.505647	0.525212	10.1492	-1
141.3	92.7326	Inf	0.00141204	25.1119	25.1545	25.0693	33.0099	0.505641	0.548683	10.1492	-1
141.75	92.6052	Inf	0.00141654	25.1303	25.1772	25.0834	33.0094	0.505685	0.493836	10.1496	-1
142.2	92.482	Inf	0.00142104	25.1141	25.1481	25.0801	33.0101	0.505302	0.433831	10.1496	-1
142.65	92.4795	Inf	0.00142555	25.124	25.1773	25.0708	33.0111	0.505103	0.463491	10.1495	-1
143.1	92.444	Inf	0.00143005	25.1138	25.1464	25.0813	33.0107	0.50584	0.471095	10.1494	-1
143.55	92.4058	Inf	0.00143454	25.1287	25.1723	25.0852	33.0099	0.505278	0.460623	10.1495	-1
144	92.3799	Inf	0.00143903	25.1278	25.1698	25.0858	33.0113	0.506126	0.434354	10.1497	-1
144.45	92.2394	Inf	0.00144355	25.1105	25.1606	25.0604	33.0115	0.504756	0.407847	10.1496	-1
144.9	92.1393	Inf	0.00144805	25.1178	25.1626	25.0729	33.0106	0.504132	0.428442	10.1498	-1
145.35	92.2149	Inf	0.00145254	25.1038	25.1485	25.0592	33.0114	0.505881	0.534033	10.1497	-1
145.8	92.165	Inf	0.00145703	25.0862	25.1313	25.0411	33.0104	0.504363	0.587175	10.1496	-1
146.25	92.2618	Inf	0.00146155	25.1314	25.1648	25.098	33.011	0.504556	0.583708	10.1498	-1
146.7	92.0632	Inf	0.00146606	25.1074	25.1503	25.0645	33.0116	0.505759	0.530651	10.1495	-1
147.15	92.0293	Inf	0.00147054	25.1147	25.161	25.0684	33.0096	0.505826	0.525126	10.1495	-1
147.6	92.0473	Inf	0.00147503	25.1092	25.1459	25.0725	33.0106	0.505624	0.578788	10.1498	-1
148.05	91.9201	Inf	0.00147953	25.1349	25.1748	25.095	33.0121	0.504419	0.627503	10.1494	-1
148.5	91.7652	Inf	0.00148405	25.1222	25.1637	25.0807	33.0104	0.504437	0.570817	10.15	-1
148.95	91.8168	Inf	0.00148853	25.1165	25.1739	25.0592	33.011	0.506067	0.513863	10.1492	-1
149.4	91.7159	Inf	0.00149301	25.1146	25.1517	25.0776	33.0087	0.504872	0.470294	10.1497	-1
149.85	91.7604	Inf	0.00149753	25.1182	25.1793	25.0571	33.0112	0.506193	0.509091	10.1497	-1
150.3	91.64	Inf	0.00150201	25.1315	25.1716	25.0914	33.0116	0.506361	0.569017	10.1494	-1
150.75	91.5389	Inf	0.00150653	25.1227	25.1631	25.0823	33.0101	0.505638	0.55092	10.1495	-1
151.2	91.4837	Inf	0.00151104	25.1107	25.1705	25.0509	33.0106	0.50554	0.555636	10.1497	-1
151.65	91.4679	Inf	0.00151553	25.1259	25.1776	25.0742	33.0116	0.506011	0.527476	10.1495	-1
152.1	91.4126	Inf	0.00152001	25.1072	25.1508	25.0637	33.0109	0.505559	0.527475	10.1496	-1
152.55	91.4636	Inf	0.00152451	25.1248	25.1654	25.0841	33.0109	0.504976	0.554042	10.1493	-1
153	91.4299	Inf	0.00152903	25.1234	25.1667	25.0801	33.0106	0.506211	0.528898	10.1495	-1
153.45	91.3628	Inf	0.00153354	25.1138	25.1541	25.0735	33.0103	0.506207	0.506361	10.1491	-1
153.9	91.3149	Inf	0.00153803	25.1114	25.1525	25.0702	33.0109	0.505166	0.508035	10.1497	-1
154.35	91.3442	Inf	0.0015425	25.1146	25.1595	25.0697	33.0109	0.504911	0.509924	10.1495	-1
154.8	91.1602	Inf	0.001547	25.1215	25.1629	25.08	33.0085	0.504911	0.542838	10.1494	-1
155.25	91.1985	Inf	0.00155152	25.1078	25.1538	25.0618	33.0106	0.504714	0.6027	10.1494	-1
155.7	91.2457	Inf	0.00155601	25.1198	25.1608	25.0788	33.0102	0.506001	0.590322	10.1496	-1
156.15	91.1631	Inf	0.00156052	25.1106	25.1516	25.0696	33.0121	0.505328	0.542405	10.1496	-1
156.6	91.2518	Inf	0.00156502	25.1181	25.1655	25.0707	33.0118	0.506178	0.553626	10.1498	-1
157.05	91.1058	Inf	0.00156951	25.1177	25.1561	25.0792	33.0118	0.504862	0.587702	10.1495	-1
157.5	91.1815	Inf	0.00157401	25.1098	25.153	25.0666	33.0098	0.505799	0.618655	10.1496	-1
157.95	91.148	Inf	0.00157851	25.1105	25.1549	25.0662	33.0103	0.505288	0.571287	10.1497	-1
158.4	91.053	Inf	0.00158302	25.1022	25.1395	25.0648	33.0114	0.505489	0.526481	10.1495	-1
158.85	91.0432	Inf	0.00158751	25.1157	25.1542	25.0772	33.0103	0.505057	0.484279	10.1496	-1
159.3	91.0361	Inf	0.00159198	25.1271	25.1687	25.0854	33.0108	0.505149	0.524047	10.1492	-1
159.75	91.0152	Inf	0.0015965	25.1092	25.1538	25.0646	33.0116	0.505874	0.561198	10.1494	-1
160.2	91.0183	Inf	0.001601	25.14	25.177	25.1029	33.0104	0.505216	0.58292	10.1494	-1
160.65	90.9513	Inf	0.00160551	25.1206	25.1668	25.0743	33.0103	0.505576	0.50445	10.1496	-1
161.1	90.9404	Inf	0.00161	25.1192	25.1721	25.0663	33.0103	0.505451	0.510974	10.1496	-1
161.55	90.9531	Inf	0.00161451	25.1249	25.165	25.0847	33.0115	0.505119	0.501914	10.1494	-1
162	90.8347	Inf	0.00161898	25.1125	25.165	25.0601	33.0112	0.505314	0.564373	10.1498	-1
162.45	90.9513	Inf	0.00162348	25.1245	25.1752	25.0737	33.0113	0.505856	0.607115	10.1496	-1
162.9	90.8734	Inf	0.00162801	25.1174	25.1633	25.0715	33.0107	0.505709	0.546267	10.1496	-1
163.35	90.8996	Inf	0.00163249	25.1117	25.1567	25.0668	33.0117	0.504974	0.474326	10.1497	-1
163.8	90.9821	Inf	0.00163699	25.1088	25.1576	25.06	33.0114	0.506033	0.537567	10.1493	-1
164.25	90.8783	Inf	0.00164146	25.1189	25.1565	25.0812	33.0114	0.506049	0.582267	10.1496	-1
164.7	90.8694	Inf	0.00164599	25.1167	25.161	25.0723	33.0119	0.505642	0.656014	10.1496	-1
165.15	90.736	Inf	0.00165049	25.1222	25.1611	25.0833	33.0108	0.505302	0.629831	10.1496	-1
165.6	90.8359	Inf	0.00165499	25.118	25.1608	25.0752	33.0112	0.505763	0.580811	10.1499	-1
166.05	90.7587	Inf	0.00165949	25.1145	25.1688	25.0603	33.0106	0.504763	0.588268	10.1495	-1
166.5	90.7094	Inf	0.00166397	25.1147	25.152	25.0775	33.0111	0.506359	0.585217	10.1495	-1
166.95	90.7452	Inf	0.00166846	25.1041	25.1491	25.0592	33.0106	0.505238	0.587691	10.1494	-1
167.4	90.7306	Inf	0.00167299	25.1104	25.1562	25.0646	33.0119	0.506197	0.615265	10.1496	-1
167.85	90.7196	Inf	0.0016775	25.1157	25.1586	25.0727	33.0109	0.505052	0.553588	10.1494	-1
168.3	90.7124	Inf	0.00168199	25.1029	25.1517	25.0541	33.0116	0.505799	0.51416	10.1494	-1
168.75	90.6955	Inf	0.00168647	25.1157	25.1624	25.0691	33.0113	0.505668	0.577252	10.1498	-1
169.2	90.6837	Inf	0.00169097	25.1069	25.1383	25.0756	33.0107	0.505651	0.600525	10.1496	-1
169.65	90.6848	Inf	0.00169548	25.122	25.1601	25.0838	33.0112	0.505116	0.582827	10.1498	-1
170.1	90.767	Inf	0.00169999	25.1262	25.1646	25.0878	33.0106	0.506232	0.569583	10.1494	-1
170.55	90.7447	Inf	0.00170447	25.1179	25.1655	25.0702	33.0119	0.505905	0.503803	10.1493	-1
171	90.7301	Inf	0.00170899	25.1278	25.1733	25.0822	33.012	0.505379	0.563419	10.1496	-1
171.45	90.6982	Inf	0.00171346	25.1152	25.1516	25.0789	33.0118	0.505491	0.595881	10.1498	-1
171.9	90.687	Inf	0.00171798	25.1158	25.1546	25.077	33.0118	0.505189	0.609254	10.1495	-1
172.35	90.6566	Inf	0.00172248	25.1154	25.1537	25.0771	33.0129	0.505185	0.60835	10.1495	-1
172.8	90.7534	Inf	0.00172699	25.1138	25.1599	25.0678	33.0098	0.505915	0.536691	10.1495	-1
173.25	90.6939	Inf	0.00173147	25.1151	25.1611	25.0691	33.0121	0.505224	0.545221	10.1496	-1
173.7	90.6879	Inf	0.00173595	25.113	25.16	25.066	33.0103	0.505473	0.601915	10.1496	-1
174.15	90.7855	Inf	0.00174048	25.1126	25.1608	25.0644	33.0128	0.504786	0.652285	10.1494	-1
174.6	90.8083	Inf	0.00174497	25.1229	25.1636	25.0821	33.013	0.50623	0.651599	10.1496	-1
175.05	90.7448	Inf	0.00174947	25.1281	25.1856	25.0706	33.012	0.505579	0.618768	10.1495	-1
175.5	90.7562	Inf	0.00175394	25.1259	25.1622	25.0896	33.0113	0.50523	0.579087	10.1494	-1
175.95	90.8823	Inf	0.00175846	25.1021	25.1489	25.0553	33.0113	0.505565	0.585207	10.1498	-1
176.4	90.8791	Inf	0.00176298	25.1249	25.1753	25.0744	33.0109	0.505902	0.578092	10.1495	-1
176.85	90.9757	Inf	0.00176744	25.1148	25.1627	25.067	33.0106	0.504966	0.573132	10.1495	-1
177.3	90.7879	Inf	0.00177196	25.1026	25.1506	25.0546	33.0104	0.505806	0.511115	10.1495	-1
177.75	90.9699	Inf	0.00177643	25.1274	25.1757	25.0792	33.0112	0.506511	0.444963	10.1496	-1
178.2	90.9136	Inf	0.00178094	25.1098	25.1566	25.063	33.0116	0.505673	0.485279	10.1492	-1
178.65	91.019	Inf	0.00178544	25.1212	25.1687	25.0737	33.0105	0.506068	0.535952	10.1495	-1
179.1	90.9174	Inf	0.00178997	25.1147	25.1645	25.0649	33.0113	0.505895	0.573112	10.1494	-1
179.55	90.9462	Inf	0.00179447	25.1118	25.1586	25.0651	33.0142	0.505572	0.570461	10.1499	-1
180	91.0038	Inf	0.00179897	25.1161	25.1528	25.0795	33.0084	0.505015	0.547782	10.1493	-1
180.45	90.979	Inf	0.00180344	25.1187	25.1679	25.0696	33.0123	0.505922	0.53497	10.1494	-1
180.9	91.0612	Inf	0.00180792	25.1205	25.1745	25.0666	33.0112	0.505956	0.563725	10.1494	-1
181.35	91.0946	Inf	0.00181246	25.1259	25.1915	25.0603	33.0107	0.50604	0.602116	10.15	-1
181.8	91.0708	Inf	0.00181694	25.1034	25.1579	25.0489	33.0133	0.505071	0.584386	10.1493	-1
182.25	91.06	Inf	0.00182145	25.1234	25.1651	25.0818	33.0119	0.506262	0.526301	10.1494	-1
182.7	91.1973	Inf	0.00182595	25.1129	25.1493	25.0764	33.0132	0.504979	0.467632	10.1495	-1
183.15	91.0793	Inf	0.00183042	25.1229	25.1843	25.0614	33.0122	0.505318	0.50214	10.149	-1
183.6	91.1811	Inf	0.00183489	25.1179	25.1506	25.0852	33.0113	0.505903	0.556861	10.1495	-1
184.05	91.1606	Inf	0.0018394	25.1121	25.1643	25.0599	33.0114	0.505461	0.578183	10.149	-1
184.5	91.2422	Inf	0.00184393	25.1204	25.1594	25.0814	33.0118	0.50597	0.541822	10.1489	-1
184.95	91.3325	Inf	0.00184841	25.1276	25.1643	25.091	33.0116	0.506059	0.499696	10.1492	-1
185.4	91.3262	Inf	0.00185288	25.1172	25.1475	25.0868	33.0124	0.505112	0.521599	10.1493	-1
185.85	91.4295	Inf	0.00185739	25.1131	25.1524	25.0738	33.0116	0.505841	0.566851	10.149	-1
186.3	91.3833	Inf	0.0018619	25.1318	25.1691	25.0945	33.0122	0.506434	0.542212	10.149	-1
186.75	91.302	Inf	0.00186638	25.1101	25.1656	25.0546	33.0131	0.50619	0.502816	10.1494	-1
187.2	91.3131	Inf	0.0018709	25.1243	25.1634	25.0853	33.0133	0.505895	0.473177	10.1497	-1
187.65	91.3064	Inf	0.00187539	25.1267	25.1774	25.0761	33.0115	0.505266	0.484832	10.1495	-1
188.1	91.5014	Inf	0.00187987	25.111	25.1616	25.0604	33.0124	0.506407	0.531664	10.1494	-1
188.55	91.3555	Inf	0.00188438	25.1147	25.1675	25.0618	33.0116	0.505238	0.575426	10.1494	-1
189	91.4762	Inf	0.0018889	25.1093	25.1525	25.0661	33.0126	0.506677	0.543812	10.1494	-1
189.45	91.4952	Inf	0.0018934	25.1281	25.1665	25.0898	33.0133	0.50507	0.548236	10.1494	-1
189.9	91.4573	Inf	0.00189789	25.1262	25.17	25.0825	33.0125	0.505506	0.517477	10.1496	-1
190.35	91.5438	Inf	0.00190238	25.1291	25.1724	25.0858	33.012	0.504856	0.559295	10.1493	-1
190.8	91.5268	Inf	0.00190689	25.1144	25.1478	25.0809	33.0124	0.50563	0.576907	10.1491	-1
191.25	91.6383	Inf	0.00191139	25.1199	25.1672	25.0726	33.0113	0.506039	0.551384	10.1495	-1
191.7	91.6156	Inf	0.0019159	25.1115	25.1654	25.0576	33.0101	0.506122	0.509509	10.1493	-1
192.15	91.783	Inf	0.00192039	25.1129	25.1617	25.064	33.0123	0.505602	0.460355	10.1492	-1
192.6	91.8591	Inf	0.00192488	25.1126	25.148	25.0771	33.0128	0.505771	0.470316	10.1494	-1
193.05	91.8098	Inf	0.00192936	25.1124	25.1549	25.07	33.0117	0.505669	0.505881	10.1494	-1
193.5	91.9187	Inf	0.00193388	25.1285	25.1686	25.0883	33.0121	0.505032	0.482562	10.1496	-1
193.95	91.9573	Inf	0.00193839	25.1223	25.1654	25.0793	33.0129	0.506494	0.475067	10.1493	-1
194.4	92.0977	Inf	0.00194288	25.1091	25.1592	25.0589	33.013	0.505718	0.428413	10.1494	-1
194.85	91.9935	Inf	0.00194736	25.1216	25.1627	25.0806	33.0107	0.505773	0.420925	10.1492	-1
195.3	92.0731	Inf	0.00195186	25.1029	25.1423	25.0634	33.0109	0.505241	0.481212	10.1492	-1
195.75	92.1434	Inf	0.00195638	25.112	25.1535	25.0705	33.0124	0.50652	0.517777	10.1491	-1
196.2	92.1382	Inf	0.00196088	25.1135	25.1642	25.0629	33.011	0.50569	0.460134	10.1491	-1
196.65	92.2035	Inf	0.00196535	25.1061	25.15	25.0621	33.0113	0.505395	0.424126	10.149	-1
197.1	92.2729	Inf	0.00196985	25.1131	25.1587	25.0675	33.0147	0.505471	0.430812	10.1491	-1
197.55	92.2123	Inf	0.00197436	25.1163	25.1647	25.0679	33.0117	0.506316	0.505254	10.1492	-1
198	92.2621	Inf	0.00197886	25.1065	25.1495	25.0635	33.0129	0.505516	0.524557	10.1492	-1
198.45	92.3963	Inf	0.00198336	25.117	25.1668	25.0673	33.0113	0.505874	0.532634	10.1493	-1
198.9	92.3862	Inf	0.00198787	25.1023	25.1401	25.0646	33.0117	0.50673	0.463971	10.149	-1
199.35	92.3873	Inf	0.00199237	25.123	25.1585	25.0876	33.0132	0.505636	0.465807	10.1493	-1
199.8	92.436	Inf	0.00199686	25.1089	25.1583	25.0595	33.0132	0.505622	0.487299	10.1496	-1
200.25	92.4715	Inf	0.00200133	25.1041	25.1491	25.0591	33.013	0.505235	0.544135	10.1493	-1
200.7	92.5139	Inf	0.00200589	25.1108	25.1502	25.0715	33.0114	0.505305	0.500103	10.1493	-1
201.15	92.569	Inf	0.00201037	25.1159	25.1566	25.0751	33.0127	0.506197	0.442011	10.1494	-1
201.6	92.5556	Inf	0.00201485	25.1123	25.1585	25.066	33.0125	0.504688	0.40888	10.1491	-1
202.05	92.6713	Inf	0.00201935	25.1118	25.1552	25.0684	33.0136	0.505855	0.407117	10.1494	-1
202.5	92.6357	Inf	0.00202385	25.1099	25.1554	25.0643	33.013	0.50536	0.492549	10.1494	-1
202.95	92.6801	Inf	0.00202836	25.1137	25.1477	25.0797	33.0118	0.505967	0.495355	10.1494	-1
203.4	92.6115	Inf	0.00203285	25.1137	25.1598	25.0675	33.0126	0.505104	0.464746	10.1491	-1
203.85	92.82	Inf	0.00203736	25.1301	25.1718	25.0884	33.0137	0.50633	0.398676	10.1496	-1
204.3	92.7268	Inf	0.00204187	25.1152	25.1483	25.082	33.0127	0.505802	0.424504	10.1498	-1
204.75	92.8104	Inf	0.00204634	25.1152	25.1549	25.0755	33.0128	0.505741	0.475361	10.1497	-1
205.2	92.9384	Inf	0.00205085	25.1273	25.1691	25.0855	33.0126	0.505837	0.487106	10.1494	-1
205.65	92.8326	Inf	0.00205535	25.1081	25.1352	25.0811	33.0122	0.505784	0.504343	10.1493	-1
206.1	92.886	Inf	0.0020599	25.1146	25.1648	25.0645	33.0132	0.505976	0.448875	10.1493	-1
206.55	92.977	Inf	0.00206432	25.1058	25.1426	25.069	33.0113	0.50578	0.431227	10.1496	-1
207	92.9921	Inf	0.00206883	25.112	25.1557	25.0683	33.013	0.505773	0.482396	10.1495	-1
207.45	93.0057	Inf	0.00207339	25.1183	25.1601	25.0765	33.0129	0.506168	0.544473	10.1495	-1
207.9	93.0145	Inf	0.00207783	25.1121	25.1534	25.0708	33.012	0.505309	0.536344	10.1492	-1
208.35	93.1148	Inf	0.00208236	25.1089	25.15	25.0678	33.0119	0.50579	0.473836	10.1495	-1
208.8	93.0233	Inf	0.00208684	25.1161	25.162	25.0702	33.0122	0.506407	0.448061	10.1493	-1
209.25	93.0469	Inf	0.00209138	25.1198	25.1699	25.0697	33.0131	0.505778	0.461426	10.1496	-1
209.7	93.0426	Inf	0.0020959	25.1067	25.1537	25.0597	33.0132	0.505974	0.489715	10.1496	-1
210.15	93.0821	Inf	0.00210035	25.1079	25.1468	25.069	33.0124	0.505814	0.472727	10.1493	-1
210.6	93.0133	Inf	0.00210491	25.1082	25.1447	25.0717	33.0135	0.506085	0.439571	10.1498	-1
211.05	93.0446	Inf	0.00210937	25.1088	25.1473	25.0703	33.012	0.505737	0.37566	10.1494	-1
211.5	92.9652	Inf	0.00211387	25.1117	25.1571	25.0664	33.0118	0.505833	0.351634	10.1494	-1
211.95	93.0633	Inf	0.00211837	25.098	25.1305	25.0655	33.013	0.505379	0.465162	10.1494	-1
212.4	93.0616	Inf	0.00212289	25.1221	25.1666	25.0775	33.0134	0.506596	0.488925	10.1493	-1
212.85	93.0878	Inf	0.00212739	25.1093	25.1482	25.0705	33.0121	0.506246	0.493493	10.1492	-1
213.3	93.0966	Inf	0.00213189	25.1201	25.1777	25.0624	33.0136	0.504961	0.427817	10.1494	-1
213.75	93.1189	Inf	0.00213638	25.1262	25.1748	25.0776	33.0122	0.505763	0.420266	10.1494	-1
214.2	93.0079	Inf	0.00214089	25.1079	25.1503	25.0654	33.0116	0.505694	0.454268	10.1495	-1
214.65	93.0413	Inf	0.00214539	25.1149	25.15	25.0798	33.0126	0.505943	0.50345	10.15	-1
215.1	93.0979	Inf	0.00214986	25.1113	25.1551	25.0674	33.0121	0.506112	0.505756	10.1496	-1
215.55	92.9989	Inf	0.00215438	25.1051	25.1332	25.077	33.0111	0.506274	0.418959	10.1494	-1
216	92.9711	Inf	0.0021589	25.1283	25.1663	25.0903	33.0134	0.505469	0.388777	10.1495	-1
216.45	92.9658	Inf	0.00216336	25.1029	25.1519	25.0539	33.012	0.506516	0.43374	10.1493	-1
216.9	92.9763	Inf	0.00216785	25.1083	25.1555	25.061	33.0126	0.506458	0.435674	10.1495	-1
217.35	93.0701	Inf	0.00217237	25.1036	25.1323	25.0749	33.0124	0.505436	0.490254	10.1497	-1
217.8	93.0169	Inf	0.0021769	25.1047	25.1475	25.0618	33.0138	0.506056	0.461904	10.1493	-1
218.25	92.9144	Inf	0.00218138	25.1157	25.151	25.0804	33.0126	0.506128	0.397485	10.1494	-1
218.7	92.823	Inf	0.00218582	25.1097	25.1484	25.071	33.0129	0.506809	0.408735	10.1495	-1
219.15	0.0238639	-0.596185	0.00219038	25.1273	25.1688	25.0858	33.0139	0.506646	0.159445	10.148	-1
219.6	-0.0682051	-0.62785	0.00219488	25.1231	25.1601	25.0861	33.0134	0.507085	0.182475	10.148	-1
220.05	-0.0414207	-0.630173	0.00219937	25.116	25.1575	25.0746	33.013	0.508098	0.165797	10.1479	-1
220.5	0.011725	-0.641336	0.0022039	25.1142	25.1506	25.0778	33.0133	0.508061	0.105088	10.1478	-1
220.95	-0.0581171	-0.634852	0.00220837	25.1281	25.1778	25.0784	33.014	0.507412	0.098826	10.1477	-1
221.4	0.04486	-0.649279	0.00221288	25.1169	25.1642	25.0696	33.0147	0.507194	0.135228	10.1479	-1
221.85	0.0327889	-0.637149	0.00221735	25.1124	25.1548	25.07	33.0138	0.506934	0.16162	10.1477	-1
222.3	-0.0180859	-0.658151	0.00222186	25.12	25.1649	25.0751	33.0137	0.508004	0.196222	10.1478	-1
222.75	-0.038263	-0.647202	0.00222638	25.118	25.152	25.084	33.0132	0.508809	0.135474	10.1478	-1
223.2	-0.00927557	-0.649235	0.00223085	25.1122	25.1446	25.0797	33.0127	0.508332	0.140615	10.1479	-1
223.65	0.0013041	-0.649962	0.00223536	25.1384	25.1881	25.0887	33.0135	0.507774	0.162186	10.1478	-1
224.1	0.0370224	-0.64907	0.00223986	25.114	25.1572	25.0708	33.014	0.508061	0.206311	10.148	-1
224.55	-0.00973776	-0.654013	0.00224437	25.1238	25.1556	25.0919	33.0128	0.506689	0.216351	10.1479	-1
224.8	-0.0141523	-0.650713	0.00224686	25.1193	25.161	25.0776	33.0137	0.507717	0.185803	10.148	-1