File: data/PrimaryData/Steel_4130/Tensile_test_1.csv
Displacement (mm),Load (N)
0.000483611,0.456651
0.000688891,0.387027
0.000630192,1.75748
0.000368589,1.88054
0.00045253,3.67703
0.000488366,4.14496
0.000493528,5.3351
0.00052907,7.02272
0.000510735,8.74494
0.000357167,9.93433
0.0006263,11.561
0.000483088,12.5082
0.000713588,14.3779
0.000880601,16.1783
0.000847729,17.9841
0.000654377,20.4556
0.000625081,22.5036
0.000659804,26.9959
0.000585513,28.2886
0.000874738,31.2565
0.000638812,32.7321
0.000649351,35.7046
0.000963977,38.5713
0.00084096,43.4289
0.000702445,46.8908
0.000908373,47.5912
0.000650866,50.5129
0.000946327,56.1194
0.000718897,59.796
0.00101635,65.172
0.000960377,72.4511
0.000991998,75.3928
0.00110994,83.3124
0.00100952,88.8231
0.00113808,94.3487
0.0011305,100.576
0.00152448,108.23
0.00116421,115.574
0.00121562,121.791
0.001303,131.486
0.00138593,140.095
0.00151788,147.18
0.00143389,155.516
0.00141265,163.337
0.00143242,172.18
0.00162357,180.784
0.00175214,190.144
0.00185003,198.847
0.00186203,210.079
0.0019963,220.962
0.0019643,230.393
0.00209898,243.912
0.0020413,256.672
0.0020886,267.865
0.00241417,280.181
0.00230431,291.322
0.00239885,303.157
0.00243197,316.403
0.00255127,327.787
0.00282035,341.345
0.00270584,352.464
0.00276234,367.858
0.00307491,381.017
0.00283346,395.295
0.00294686,409.986
0.00315531,426.484
0.00346216,443.366
0.00329201,460.477
0.00344767,476.325
0.00349929,492.044
0.0035732,505.844
0.00370432,520.524
0.00383879,536.698
0.00397793,554.038
0.00432891,570.672
0.00418491,587.103
0.00461828,605.175
0.0046297,623.83
0.00467168,642.077
0.00466385,659.45
0.00491683,676.347
0.00495332,692.484
0.00528845,710.23
0.00526971,728.336
0.00544763,748.016
0.00549756,768.35
0.00585486,788.661
0.00584246,809.123
0.00618724,829.09
0.00612557,848.813
0.00619654,867.584
0.00651294,886.147
0.0064331,904.927
0.00645113,924.291
0.00693494,946.254
0.0069688,969.086
0.0068024,990.188
0.00723666,1010.56
0.00734921,1030.65
0.00738259,1051.07
0.00746687,1069.91
0.00782812,1093.57
0.00786485,1113.99
0.00786693,1138.23
0.00822049,1163.27
0.00854008,1182.26
0.00861845,1203.63
0.00879991,1225
0.00895611,1244.88
0.00913113,1265.47
0.00920318,1288.59
0.0091319,1309.23
0.0091991,1328.19
0.00950612,1343.32
0.00943983,1338.08
0.00930629,1305.68
0.00905302,1297.11
0.00902499,1303.42
0.00930372,1313.6
0.00929118,1327.03
0.00944347,1339.06
0.00951131,1354.36
0.00948186,1370.76
0.00978338,1388.13
0.0100134,1404.71
0.0100798,1421.82
0.0101597,1434.78
0.0102365,1448.45
0.0103768,1465.95
0.0103245,1483.56
0.0104292,1501.71
0.0106547,1518.04
0.0107589,1535.49
0.0109596,1550.07
0.0109323,1567.12
0.0112703,1586.24
0.0111283,1606.36
0.0112937,1621.62
0.011412,1637.81
0.0116746,1653.66
0.0119818,1673.21
0.0117912,1694.67
0.012192,1712.78
0.0120246,1728.94
0.0123138,1747.82
0.0124356,1766.4
0.0126572,1786.67
0.012777,1808.68
0.0129061,1826.09
0.0129426,1845.17
0.0128409,1862.01
0.013305,1882.81
0.0135429,1905.1
0.013598,1924.11
0.0134529,1941.74
0.013617,1960.66
0.0137855,1982.61
0.0138481,2005.09
0.0143588,2024.3
0.0143255,2041.57
0.0144064,2060.8
0.0147111,2084.75
0.0146553,2104.875
0.014867,2121.93
0.0149968,2141.16
0.0151071,2163.17
0.0153852,2185.08
0.0154488,2204.33
0.0154871,2222.53
0.0157209,2243.1
0.0156755,2264.98
0.015994,2287.15
0.0162018,2304.22
0.0162069,2320.48
0.0164151,2342.21
0.0166999,2363.3
0.0167944,2378.35
0.0168587,2391.96
0.0170233,2407.76
0.0171064,2425.1
0.0171273,2437.21
0.0173292,2444.8
0.0170725,2453.52
0.0172701,2466.15
0.0173175,2471.93
0.017244,2478.14
0.0173134,2488.47
0.0178346,2502.6
0.0174994,2511.65
0.0176628,2518.94
0.0178188,2530.92
0.0181564,2544.06
0.0180496,2551.01
0.0182401,2559.27
0.0182976,2574.03
0.0180062,2587.25
0.0184404,2594.83
0.0182265,2604.14
0.0183626,2615.72
0.0183544,2628.52
0.0185357,2637.54
0.0186307,2649.82
0.0192054,2664.04
0.0187737,2673.85
0.0185811,2680.53
0.0190809,2696.43
0.0191575,2708.24
0.0191144,2717.06
0.0194124,2727.97
0.0194561,2744.21
0.0191667,2753.65
0.0194287,2763.54
0.0194601,2779.19
0.0198633,2791.45
0.0199611,2800.4
0.0199142,2815.99
0.0198769,2830.39
0.0201333,2839.65
0.0199978,2849.72
0.0204332,2866.74
0.0202852,2875.74
0.0203076,2885.54
0.0205118,2900.71
0.0205223,2914.16
0.0207931,2924.53
0.0208809,2941.11
0.0211009,2952.08
0.0209646,2962.78
0.0211443,2977.03
0.0212767,2989.02
0.0213658,2997.32
0.021337,3014.63
0.0214925,3027.92
0.021664,3038.58
0.0216792,3054.48
0.0217312,3065.95
0.0216736,3076.12
0.0218451,3092.98
0.0222038,3105.67
0.0220422,3115.58
0.0219261,3133.64
0.0222775,3144.96
0.0222382,3157.1
0.0225199,3174.78
0.0226219,3185.04
0.0224602,3197.14
0.022758,3215.84
0.0228804,3226.76
0.0226828,3239.17
0.0230022,3256.64
0.0232072,3266.72
0.0234273,3283.29
0.0233848,3299.03
0.0234889,3308.63
0.0238013,3327.1
0.0238753,3338.34
0.0236702,3351.02
0.0241001,3371.01
0.0241101,3380.51
0.0241857,3397.86
0.024466,3411.76
0.0245691,3422.89
0.0245881,3442
0.0245427,3452.85
0.0246471,3469.92
0.0246735,3486.14
0.0245768,3496.88
0.02507,3516.72
0.0251763,3528.94
0.0251346,3545.66
0.02554,3561.96
0.0253882,3571.65
0.0254714,3590.53
0.0257502,3605.34
0.0257032,3619.83
0.025853,3634.22
0.0260143,3645.36
0.0263697,3666.45
0.0264243,3678.88
0.0263375,3697.5
0.0265706,3711.57
0.0264924,3727.08
0.0266797,3744.74
0.0269592,3756.32
0.0271778,3776.83
0.027152,3789.22
0.0272021,3807.77
0.0272042,3821.33
0.0273972,3835.93
0.0277311,3854.24
0.0278871,3868.51
0.0278894,3889.42
0.0280633,3900.19
0.0282396,3922.03
0.0281581,3934.01
0.0284997,3953.9
0.0284914,3968.96
0.0284034,3983.12
0.0287138,4001.3
0.0291322,4014.47
0.0288734,4035.07
0.0289912,4048.24
0.0289032,4069.28
0.0293634,4084.11
0.0294394,4104.24
0.0296082,4118.13
0.0296148,4139.54
0.03004,4153.13
0.0301059,4174.26
0.0301422,4187.09
0.0301829,4206.53
0.0302999,4221.3
0.0306697,4241.66
0.0305219,4257.57
0.0307919,4278.34
0.0312738,4294.31
0.031148,4315.05
0.031255,4331.15
0.0317197,4352.16
0.0316452,4366.84
0.0315344,4385.66
0.0318578,4402.09
0.032292,4423.25
0.0323006,4439.05
0.0324673,4458.54
0.0325105,4475.9
0.0326255,4495.98
0.032663,4512.24
0.0330291,4534.44
0.0330861,4548.6
0.033555,4597.84
0.0334274,4605.44
0.0338522,4617.84
0.033488,4635.36
0.0340869,4650.75
0.0340829,4672.32
0.0343989,4689.55
0.0344202,4710.55
0.0345062,4729.91
0.034431,4752.92
0.0347734,4769.28
0.0348769,4790.47
0.0348846,4808.22
0.0354011,4831.3
0.0355847,4848.16
0.0358244,4867.86
0.036168,4891.05
0.0359983,4907.93
0.0361454,4930.27
0.0365293,4947.36
0.0365955,4973.25
0.0369882,4992.16
0.0367988,5011.5
0.0372151,5031.62
0.0373307,5052.15
0.0374259,5075.41
0.0375791,5092.17
0.0379463,5115.92
0.0378734,5137.3
0.0382736,5157.43
0.0384227,5181.02
0.0388382,5200.1
0.0388039,5223.26
0.0389941,5241.59
0.0390053,5261.65
0.0391766,5285.8
0.0392473,5305.92
0.0393748,5330.81
0.0398093,5352.1
0.0399204,5372.07
0.0401039,5398.16
0.0403047,5414.19
0.0404561,5438.64
0.0406696,5461.38
0.0410011,5482.7
0.0410661,5506.64
0.0412493,5528.55
0.0416827,5551.82
0.041574,5576.68
0.0419296,5595.42
0.0422464,5620.98
0.0423081,5641.91
0.0425441,5661.82
0.0431003,5688.58
0.0429933,5709.41
0.0431808,5732.34
0.0431441,5756.84
0.0435442,5778.42
0.043907,5800.15
0.0440025,5826.83
0.0440125,5847.41
0.0442368,5871.94
0.044512,5895.12
0.044586,5916.44
0.0451799,5943.23
0.0453701,5968.92
0.0455679,5988.21
0.0457391,6014.39
0.0459705,6042.48
0.0462404,6062.32
0.0463097,6088.43
0.0465492,6114.62
0.0465792,6134.78
0.0469659,6159.89
0.0471007,6186.17
0.0473081,6209.6
0.047805,6233.68
0.0477984,6260.59
0.0481058,6284.25
0.048012,6306.14
0.0481782,6333.38
0.0489582,6359.18
0.0487546,6381.18
0.0489395,6405.92
0.0494327,6433.77
0.0496681,6454.62
0.0497151,6479.12
0.0499051,6506.14
0.0501441,6530.82
0.0503245,6555.94
0.0505448,6582.39
0.0508669,6608.96
0.0513861,6633.77
0.0515987,6657.53
0.0519382,6684.58
0.0520664,6712.35
0.0521521,6735.9
0.0523745,6762.35
0.0526388,6792.33
0.0527538,6817.82
0.0529523,6843.59
0.0533952,6868.5
0.0533112,6896.06
0.0539511,6924.81
0.0541904,6950.38
0.0542914,6976.25
0.0547122,7003.72
0.0551065,7032.15
0.0551221,7056.71
0.0554253,7079.82
0.0555905,7109.9
0.055981,7139.69
0.0560779,7167.22
0.0565491,7192.16
0.0567645,7218.58
0.0570758,7247.23
0.0573161,7276.78
0.0571443,7302.4
0.0580741,7329.6
0.057866,7357.07
0.0585246,7387.81
0.0587244,7416.51
0.0590886,7442.79
0.0591476,7469.57
0.0596447,7498.66
0.0599028,7530.64
0.0603146,7558.24
0.0604236,7585.69
0.0611651,7612.67
0.061093,7639.77
0.0614915,7670.92
0.0616661,7699.35
0.0620114,7729.14
0.0620947,7754.33
0.0624505,7782.67
0.0629684,7814.25
0.0633348,7843.85
0.0635604,7873.05
0.0638417,7902.96
0.0644216,7930.04
0.0645393,7958.66
0.0649598,7988.24
0.0652137,8018.38
0.0654185,8049.21
0.0658235,8077.89
0.066253,8106.42
0.066482,8135.59
0.0670362,8164.79
0.0673064,8193.92
0.0675228,8224.64
0.0680237,8253.41
0.0682803,8283.8
0.068503,8312.96
0.0689356,8341.26
0.0692858,8370.2
0.069668,8399.35
0.0700693,8428.77
0.0704796,8459.32
0.0706285,8492.03
0.0710741,8525.61
0.0713185,8554.3
0.0719461,8584.88
0.0719733,8610.21
0.0726489,8642.81
0.0728626,8673.25
0.0733558,8705.11
0.0736535,8736.07
0.0741468,8767.96
0.074438,8798.71
0.0750586,8830.89
0.0751974,8862.49
0.0755377,8892.12
0.0760806,8920.77
0.0765601,8950.12
0.0767636,8980.87
0.0771233,9010.74
0.0776274,9042.29
0.0783028,9072.36
0.0784741,9103.51
0.0792108,9136.21
0.0796592,9169.35
0.0801241,9199.26
0.0806095,9233.31
0.0807584,9265.94
0.08141,9296.93
0.0815863,9330.35
0.0822672,9363.1
0.0827821,9392.44
0.0832658,9423.96
0.0839493,9456.74
0.0842324,9487.53
0.0847689,9519.09
0.0853284,9551.02
0.0859032,9580.12
0.0863516,9610.37
0.0868673,9645.57
0.0873965,9677.59
0.0880189,9711.04
0.0884295,9740.59
0.0888879,9773.11
0.089443,9805.75
0.0900059,9839.38
0.090539,9869.49
0.0911201,9904.11
0.0919496,9935.23
0.0924803,9967.08
0.0928349,10000.7
0.0937549,10034.7
0.0941622,10065.4
0.094857,10095.8
0.0954519,10128.5
0.0961495,10159.1
0.0966599,10191.6
0.0974704,10223.8
0.0981594,10253.5
0.098642,10286.3
0.0995742,10318.2
0.100124,10350.1
0.101001,10382.6
0.101552,10413.9
0.102585,10446.5
0.10315,10478.6
0.104095,10510.4
0.104565,10541.8
0.105576,10571.8
0.106211,10604.7
0.106849,10634.6
0.107856,10665.1
0.108599,10695.1
0.109547,10726.1
0.110426,10757.5
0.111036,10787.7
0.112133,10819
0.112905,10848.8
0.113975,10879.9
0.114696,10914
0.116057,10942.9
0.116993,10973.8
0.117921,11004.4
0.118917,11036.9
0.120031,11068
0.121177,11098.2
0.122255,11125.7
0.123442,11153.6
0.124612,11183
0.125647,11212.6
0.126621,11240.6
0.127924,11271.2
0.128902,11299.8
0.130402,11333.1
0.131583,11362.1
0.132953,11391.1
0.134289,11419
0.135616,11444.7
0.136999,11474.2
0.138229,11501.2
0.139779,11527.8
0.141075,11556.2
0.142474,11585
0.145562,11744.8
0.151325,11892.3
0.156833,11967.2
0.162306,12035.8
0.167756,12106.9
0.173395,12171.4
0.17885,12235.6
0.184749,12302.3
0.190531,12360.1
0.196474,12423.4
0.202713,12482.5
0.209365,12539.3
0.215611,12593.7
0.222191,12650
0.229082,12702.2
0.23643,12753.4
0.243651,12805.7
0.250716,12851.2
0.258392,12900.1
0.266013,12949.5
0.273508,12992.4
0.281607,13033.5
0.289472,13079.2
0.29735,13118.2
0.305803,13161.3
0.314157,13203
0.322523,13240.9
0.331101,13279.7
0.339638,13320.2
0.348376,13355.8
0.357156,13392.6
0.36654,13431.3
0.375175,13463.2
0.384323,13498.3
0.393476,13534.2
0.402498,13566.6
0.411799,13600.6
0.421225,13633.5
0.430503,13666.1
0.439807,13696.3
0.449158,13729.1
0.458373,13759.5
0.468033,13790.6
0.477784,13820.1
0.48717,13849.7
0.497026,13880.6
0.506631,13911.5
0.516532,13939.5
0.526341,13969
0.536255,13996
0.545845,14025.7
0.555884,14054.1
0.565774,14081.6
0.576107,14110.9
0.585833,14136.1
0.596019,14161.3
0.605847,14191.1
0.616166,14218.1
0.626081,14242.3
0.636373,14266.9
0.646208,14294.5
0.656394,14317.7
0.666335,14344.4
0.676759,14371.3
0.686945,14394.6
0.697002,14419.3
0.707069,14444.4
0.717609,14469.5
0.727917,14495.7
0.738142,14518.2
0.7489,14543.3
0.759181,14564
0.769566,14590.4
0.779954,14611.7
0.790396,14636.9
0.800717,14658.5
0.811123,14679.2
0.821683,14702.6
0.831817,14726
0.842505,14745.5
0.852753,14769.7
0.863157,14789.6
0.873591,14810.9
0.884207,14833.9
0.894641,14857.5
0.90535,14877.9
0.915817,14898
0.9263,14921.2
0.936752,14938
0.947633,14963.1
0.958118,14983.9
0.968711,15000.3
0.979686,15021.7
0.990028,15042.6
1.00103,15061.3
1.01158,15081
1.02218,15102.1
1.03278,15118.9
1.04341,15137
1.05417,15161.1
1.06503,15177.4
1.07554,15197.2
1.08625,15216.9
1.09719,15234.7
1.10808,15252.9
1.11889,15273.8
1.12975,15292.7
1.14039,15308.2
1.15142,15328
1.16219,15345
1.17311,15363.9
1.18413,15385.1
1.19513,15397.8
1.20535,15413.9
1.21658,15433.4
1.22733,15449.4
1.23852,15469.5
1.24933,15486.1
1.26946,15502.3
1.29065,15517.6
1.31175,15537.9
1.33294,15554.6
1.35404,15567.9
1.37528,15588.9
1.39637,15601.8
1.41756,15619
1.43871,15637.2
1.45985,15650.7
1.48105,15668.125
1.50228,15683.1
1.52338,15698.5
1.54453,15713.5
1.56572,15731.8
1.58686,15744.6
1.60801,15758.1
1.62925,15777.7
1.65039,15789.9
1.67153,15806.4
1.69273,15825.1
1.71392,15837
1.73502,15850
1.75625,15865.8
1.77731,15882.1
1.7985,15894.1
1.81973,15910.2
1.84083,15923
1.86207,15935
1.88326,15951.7
1.90436,15967.2
1.92551,15978
1.94674,15995.4
1.96789,16004.5
1.98903,16019.2
2.01022,16034.7
2.03137,16048.7
2.05256,16060.5
2.07375,16074
2.0949,16088.5
2.116,16100.2
2.13723,16113.9
2.15829,16128.2
2.17952,16137.5
2.20071,16152.1
2.22181,16163.3
2.243,16178
2.26424,16190.7
2.28534,16203.4
2.30648,16212.5
2.32777,16226.7
2.34882,16239.9
2.37001,16248.2
2.3912,16261.8
2.4123,16274.6
2.43349,16285.2
2.45468,16301
2.47588,16312.2
2.49697,16320.9
2.51821,16333.8
2.53926,16344.6
2.56046,16356.2
2.58165,16367.9
2.60275,16379.6
2.62394,16390.5
2.64522,16399.8
2.66627,16414.2
2.68742,16422.3
2.70866,16436
2.7298,16446.7
2.75095,16454.5
2.77214,16465.4
2.79323,16477.5
2.81443,16488.5
2.83562,16497.9
2.85676,16511.6
2.87791,16520.5
2.8991,16529.3
2.9202,16541.8
2.94143,16549.8
2.96263,16559.1
2.98372,16569.6
3.00492,16580.2
3.02615,16588.7
3.0473,16600.7
3.0684,16609.3
3.08968,16617.4
3.11078,16629
3.13192,16638.8
3.15312,16647
3.17426,16658.4
3.19541,16664.5
3.2166,16675.2
3.23779,16686.9
3.25889,16696
3.28012,16704.2
3.30127,16713.4
3.32241,16721.3
3.34361,16728.8
3.36475,16739.6
3.3859,16750.7
3.40713,16754.8
3.42832,16767.7
3.44942,16772.3
3.47066,16781.1
3.49176,16791.3
3.5129,16798.6
3.5341,16806.4
3.55529,16815.7
3.57638,16824.7
3.59758,16830.8
3.61877,16842.4
3.63991,16850.8
3.6611,16854.8
3.6822,16866.2
3.70339,16874.8
3.72454,16879.5
3.74568,16888.3
3.76692,16896.6
3.78811,16901.4
3.8093,16912
3.83036,16921.3
3.85159,16926.7
3.87274,16936.6
3.89388,16943.9
3.91503,16947.2
3.93622,16958.6
3.95736,16966.5
3.97856,16972.4
3.99975,16979.8
4.02094,16987.6
4.04204,16992.6
4.06323,17001.4
4.08433,17010.8
4.10552,17014.8
4.12671,17020.4
4.1479,17030.2
4.16904,17035.2
4.19024,17044.8
4.21133,17049
4.23257,17053.1
4.25372,17063
4.27486,17068.9
4.29596,17076
4.31724,17081.5
4.33834,17088.9
4.35953,17093.1
4.38073,17102.2
4.40182,17110.9
4.42302,17115.3
4.44421,17122.2
4.4654,17129.1
4.4865,17132.1
4.50764,17140.7
4.52883,17145.9
4.54998,17150.9
4.57126,17158.1
4.59236,17164.3
4.61355,17170.8
4.6347,17175.9
4.65584,17182.5
4.67694,17186.9
4.69822,17192.75
4.71932,17199.4
4.74047,17204.2
4.76171,17211.7
4.7829,17217
4.80399,17222.3
4.82519,17226
4.84633,17235.6
4.86743,17240.7
4.88862,17245.5
4.90986,17251.25
4.931,17254.5
4.95219,17261
4.97329,17266.2
4.99453,17271.4
5.01568,17276.5
5.03687,17279.4
5.05797,17284.7
5.0792,17292.1
5.1003,17296.5
5.12145,17302.2
5.14268,17305.7
5.16388,17313.8
5.18497,17318.9
5.20617,17322.2
5.22736,17327.3
5.2485,17331.1
5.26965,17335.2
5.29084,17340.9
5.31198,17347.3
5.33327,17350.8
5.35437,17354.9
5.37556,17361.4
5.39666,17362.2
5.41785,17369.3
5.43899,17374.6
5.46023,17378.4
5.48133,17381.4
5.50252,17385.8
5.52366,17392
5.5449,17395.5
5.566,17400.6
5.58715,17405.6
5.60834,17408.9
5.62948,17415.125
5.65063,17417.8
5.67186,17420.1
5.69296,17426.2
5.7142,17429.1
5.7353,17432.5
5.75649,17438
5.77763,17442.8
5.79887,17443.9
5.81997,17448.5
5.84121,17453.2
5.86226,17452.5
5.8834,17462.1
5.90464,17465.7
5.92583,17467.8
5.94698,17474.3
5.96812,17475.5
5.98931,17479.9
6.01051,17483.7
6.03161,17485.4
6.05284,17488.6
6.07399,17494.2
6.09518,17497.6
6.11632,17498.3
6.13756,17506.3
6.15866,17508
6.17985,17507.3
6.20095,17514.1
6.22219,17517.4
6.24329,17520.3
6.26452,17524.5
6.28567,17527.6
6.30686,17529.1
6.32801,17536.1
6.3491,17538.9
6.37034,17540.1
6.39153,17543.6
6.41263,17547.7
6.43382,17547.7
6.45497,17553.5
6.4762,17555.7
6.4973,17557.3
6.51854,17561.8
6.53964,17566
6.56088,17567.5
6.58202,17571.3
6.60321,17574.4
6.62436,17573.9
6.6455,17579.3
6.6666,17583.7
6.68784,17583.2
6.70899,17590.4
6.73018,17590.5
6.75132,17593.1
6.77251,17596.2
6.79361,17600.7
6.8148,17601.2
6.83599,17602.8
6.85718,17606.5
6.87833,17606.3
6.89952,17612.5
6.92062,17614.6
6.94186,17615.3
6.963,17617.5
6.98419,17620.8
7.00529,17624.1
7.02648,17625.8
7.04763,17630.7
7.06882,17631.3
7.09001,17634.6
7.11111,17637.9
7.1323,17639
7.15349,17641.2
7.17464,17642.7
7.19578,17642.9
7.21697,17646.7
7.23816,17647.9
7.25926,17649.6
7.28055,17654.6
7.30169,17655.8
7.32284,17655.5
7.34398,17658.3
7.36517,17661.3
7.38627,17662
7.40751,17664
7.42861,17665.4
7.4498,17667.8
7.47099,17672.875
7.49213,17674.7
7.51332,17675.7
7.53452,17676.2
7.55566,17678.5
7.57676,17679.1
7.59804,17682.2
7.61919,17683.7
7.64029,17684.2
7.66157,17686.4
7.68262,17690.2
7.70381,17690.8
7.72501,17693.7
7.7462,17694.9
7.7673,17696.5
7.78849,17697.1
7.80963,17698.9
7.83078,17703.3
7.85201,17703.6
7.87311,17704.3
7.8943,17707.8
7.9155,17705.8
7.93659,17709.7
7.95774,17709.5
7.97902,17712.7
8.00012,17711.6
8.02122,17713.7
8.04246,17716.2
8.0636,17717.6
8.08479,17718.8
8.10594,17718.7
8.12713,17719.5
8.14818,17723.3
8.16947,17725.1
8.19057,17725.7
8.21176,17726.2
8.23295,17730
8.25409,17728.2
8.27524,17731.5
8.29643,17734.3
8.31762,17731
8.33872,17733
8.35996,17733.4
8.38105,17734.3
8.4022,17736.3
8.42348,17737.7
8.44463,17737.3
8.46577,17738.4
8.48696,17740.1
8.50811,17741.8
8.5293,17743.3
8.55045,17743.8
8.57159,17742.6
8.59274,17744.8
8.61397,17748.7
8.63512,17744.9
8.65631,17750
8.6775,17748.8
8.6986,17748.9
8.71974,17751.3
8.74098,17752.8
8.76208,17749.6
8.78327,17751.2
8.80446,17753.5
8.82565,17752.9
8.8468,17756.6
8.86799,17756.7
8.88918,17752.9
8.91028,17756.5
8.93147,17756.9
8.95262,17756.3
8.97381,17759.5
8.99505,17759.8
9.01614,17757.2
9.03734,17760.6
9.05843,17765
9.07963,17760
9.10077,17762.6
9.12201,17762.2
9.14311,17758.8
9.16425,17762.9
9.18549,17765.9
9.20668,17763.5
9.22787,17764.9
9.24902,17765.375
9.27016,17763.2
9.29135,17764.4
9.31245,17766.5
9.3336,17763.5
9.35479,17766.7
9.37598,17770.6
9.39708,17765.2
9.41832,17770.5
9.43946,17769.1
9.4606,17766.9
9.48175,17768.8
9.50299,17770.1
9.52409,17767.8
9.54532,17767.9
9.56647,17769.25
9.58761,17765.6
9.6088,17769.1
9.63,17772.8
9.65114,17768.1
9.67233,17770.6
9.69348,17771
9.71458,17769.8
9.73577,17772.9
9.75696,17772.8
9.77806,17769.7
9.79939,17771.6
9.82049,17773.1
9.84158,17770.4
9.86277,17770.6
9.88401,17773.6
9.90511,17766.1
9.92635,17770.2
9.94745,17772.2
9.96864,17769.1
9.98983,17769.9
10.011,17770.5
10.0321,17767
10.0534,17768.7
10.0745,17771.2
10.0956,17768.5
10.1168,17769.3
10.138,17770.3
10.159,17766.7
10.1803,17771.2
10.2015,17773.2
10.2226,17767.8
10.2438,17767.8
10.265,17768.3
10.286,17767
10.3073,17765.8
10.3284,17768.5
10.3496,17764.2
10.3709,17764.7
10.392,17766.3
10.4131,17763.4
10.4343,17764.3
10.4555,17766.7
10.4766,17763.1
10.4978,17764.9
10.519,17764.1
10.54,17762.9
10.5613,17763.2
10.5825,17764.6
10.6036,17760.8
10.6248,17760.3
10.646,17763.3
10.6671,17760.1
10.6883,17759
10.7095,17757.6
10.7306,17756.3
10.7518,17756.9
10.773,17757.3
10.7941,17754.8
10.8153,17753.1
10.8365,17756.9
10.8576,17756.2
10.8788,17753.1
10.9,17753.9
10.921,17752.1
10.9424,17752.2
10.9635,17752.3
10.9846,17750
11.0057,17750.4
11.027,17749.8
11.048,17747.6
11.0693,17746.6
11.0904,17745.9
11.1115,17745.2
11.1328,17744.2
11.154,17744.6
11.1751,17742.4
11.1963,17741
11.2174,17742.1
11.2385,17739
11.2598,17738.5
11.281,17737.9
11.302,17736.5
11.3233,17738
11.3445,17735.3
11.3656,17735.3
11.3868,17732
11.408,17731.6
11.429,17730.5
11.4503,17728.9
11.4715,17727.3
11.4926,17726.2
11.5138,17724.3
11.535,17723.7
11.5561,17722
11.5773,17722.5
11.5985,17718.8
11.6196,17720
11.6408,17719.7
11.6619,17716.9
11.683,17715.9
11.7043,17714.2
11.7255,17712.6
11.7467,17712.3
11.7678,17711.6
11.789,17708.1
11.8101,17704.9
11.8314,17705.4
11.8525,17701.3
11.8736,17702.8
11.8949,17703.1
11.9161,17700.4
11.9372,17700.7
11.9584,17696.3
11.9795,17694.3
12.0006,17694.3
12.0218,17693.5
12.043,17690.8
12.0642,17688.5
12.0854,17689.6
12.1065,17684.8
12.1277,17685.6
12.1488,17683.6
12.1701,17680.2
12.1912,17679.6
12.2124,17678.6
12.2335,17673.8
12.2547,17673.7
12.2759,17672.2
12.297,17666.7
12.3182,17666.5
12.3393,17668
12.3605,17663.5
12.3816,17662.1
12.4028,17660.1
12.424,17654.5
12.4451,17655.7
12.4663,17653.5
12.4874,17650.2
12.5086,17648.4
12.5298,17647
12.551,17643.7
12.5721,17640.1
12.5933,17640.2
12.6144,17635.1
12.6356,17632.5
12.6568,17633.6
12.6779,17627.8
12.6991,17629
12.7204,17624.7
12.7415,17620.1
12.7626,17618.6
12.7838,17619.3
12.8049,17613
12.8261,17611.4
12.8473,17609.6
12.8685,17605.3
12.8897,17602.8
12.9108,17601.8
12.932,17595
12.9531,17594.2
12.9744,17590.4
12.9955,17586.2
13.0167,17584.1
13.0379,17582.4
13.0589,17575.7
13.0802,17574.1
13.1013,17571.8
13.1225,17568.2
13.1436,17563.7
13.1649,17563.2
13.186,17556.6
13.2071,17553.1
13.2283,17549.1
13.2495,17544
13.2707,17541.9
13.2919,17539.6
13.313,17532.5
13.3342,17528.1
13.3553,17525.2
13.3764,17519.7
13.3977,17515.8
13.4189,17514.4
13.44,17505.3
13.4612,17503.8
13.4824,17500.7
13.5035,17493.4
13.5246,17487.9
13.5459,17484.7
13.5669,17478.1
13.5882,17471.8
13.6093,17469.2
13.6305,17463.5
13.6517,17456.6
13.6728,17451.4
13.694,17445.7
13.7152,17438.1
13.7364,17432.8
13.7575,17425.5
13.7787,17418.6
13.7999,17413
13.8209,17408.4
13.8422,17401.3
13.8634,17394.4
13.8845,17387.8
13.9057,17376.9
13.9269,17374.7
13.948,17364
13.9692,17356.8
13.9903,17348.9
14.0115,17339.6
14.0327,17332.3
14.0539,17323
14.075,17313.6
14.0962,17302.6
14.1174,17293
14.1385,17284.6
14.1597,17275.8
14.1809,17267.1
14.202,17255.7
14.2233,17246.5
14.2444,17235.3
14.2655,17224.1
14.2867,17213.6
14.3079,17202.1
14.329,17191.1
14.3502,17178.7
14.3714,17165
14.3925,17155.8
14.4137,17142.6
14.4349,17130
14.456,17116.2
14.4772,17101.6
14.4984,17089
14.5195,17074.8
14.5407,17061.3
14.562,17043.8
14.583,17030.3
14.6042,17017.9
14.6254,17001.2
14.6465,16987.2
14.6677,16969.7
14.6889,16953.1
14.71,16938.2
14.7312,16920.6
14.7523,16904.8
14.7735,16885.4
14.7947,16870.2
14.8159,16850.1
14.837,16834
14.8583,16815.3
14.8795,16795.4
14.9006,16774.4
14.9218,16756.1
14.9429,16736.9
14.964,16717
14.9853,16699
15.0065,16676.1
15.0276,16655.3
15.0488,16634.1
15.07,16613.3
15.0911,16592
15.1123,16570.9
15.1335,16544.3
15.1546,16523.5
15.1758,16500.7
15.197,16474.9
15.2181,16452.7
15.2394,16426.9
15.2605,16400.9
15.2816,16375.6
15.3028,16351.4
15.3241,16325.1
15.3451,16296.4
15.3664,16271.7
15.3875,16240.5
15.4087,16215.8
15.4299,16189.1
15.4511,16157
15.4722,16129.3
15.4934,16098.7
15.5145,16070
15.5357,16039.9
15.5569,16010.4
15.5781,15974.1
15.5993,15942.6
15.6205,15911.2
15.6416,15874.9
15.6627,15840.6
15.6839,15809.3
15.7052,15770.1
15.7262,15735.3
15.7475,15700.3
15.7686,15661.5
15.7898,15624.5
15.8109,15585.2
15.8322,15544.9
15.8532,15503.4
15.8745,15464.2
15.8956,15418
15.9168,15374.6
15.938,15331.5
15.9591,15283.1
15.9803,15241.4
16.0016,15193.8
16.0227,15141.2
16.0438,15088.1
16.0651,15040.6
16.0862,14987.1
16.1073,14929.9
16.1286,14876.3
16.1497,14813.3
16.1709,14752.5
16.192,14691.4
16.2133,14622.6
16.2344,14554.4
16.2556,14475.9
16.2767,14390.2
16.298,14297.6
16.3191,14198.5
16.3403,14096
16.3615,13978
16.3827,13842.1
16.4039,13648.8
16.4251,13359.4
16.4463,12768.2
16.4679,7041.33