File: data/PrimaryData/Steel_4130/Tensile_test_3.csv
Displacement (mm),Load (N)
0.000735712,1.13749
0.00109071,2.24114
0.00062541,4.97676
0.000651451,6.28552
0.000843723,7.28519
0.000847733,10.9976
0.000941053,13.5
0.000615708,16.3165
0.000874434,18.8476
0.000890306,21.4904
0.000966916,23.647
0.00107933,26.7352
0.00092294,30.0961
0.00121939,33.3628
0.00129751,38.4351
0.00123,41.6765
0.00110167,46.3802
0.000921777,49.9512
0.00090036,55.371
0.00124768,62.4802
0.00120425,68.9246
0.00132566,75.4518
0.00142387,81.3312
0.00153124,88.8344
0.00137535,96.451
0.00159446,102.972
0.00160369,111.212
0.00168693,119.315
0.0015017,127.429
0.00148483,136.662
0.00166461,144.143
0.00151166,152.071
0.00172015,162.258
0.00169563,170.98
0.00167972,180.985
0.00198611,191.505
0.00215104,201.579
0.00189642,212.709
0.00219074,224.006
0.00225805,236.588
0.00229015,248.81
0.00195769,260.19
0.00235779,272.614
0.00239265,283.5
0.00254481,296.601
0.00280864,308.586
0.00309505,319.311
0.00302365,332.53
0.0026949,342.654
0.00302277,353.553
0.00309113,365.847
0.00308922,377.116
0.00324282,390.74
0.00313235,404.521
0.00346985,419.623
0.00330105,434.116
0.00323218,447.597
0.0034497,461.428
0.00355884,475.046
0.00360831,487.885
0.0038147,500.347
0.00380594,512.681
0.00376661,525.651
0.00402209,537.891
0.00409516,552.612
0.00408421,566.994
0.00424061,581.201
0.00437772,596.071
0.0047019,607.468
0.0045505,619.446
0.00468074,632.612
0.00454809,644.412
0.00477369,656.389
0.00472777,667.473
0.00493005,678.906
0.00496818,694.241
0.00499962,708.439
0.00535855,722.435
0.00523658,734.961
0.00542733,746.43
0.00526643,756.612
0.00553886,769.299
0.00537715,779.751
0.00567791,791.289
0.00589283,798.139
0.00548431,788.777
0.00558557,777.19
0.00564931,762.417
0.00545805,750.416
0.0053934,740.775
0.00536108,735.911
0.00527977,732.926
0.00548234,734.693
0.00566137,736.578
0.00524401,737.779
0.00544772,741.463
0.00565427,742.236
0.00537168,745.053
0.00564835,749.444
0.00548234,754.491
0.0055498,762.38
0.00566235,769.633
0.00543257,775.21
0.00571366,779.388
0.00576171,783.834
0.00595051,790.06
0.00566398,796.08
0.00573204,805.662
0.00591888,813.682
0.00579467,819.257
0.00597394,821.624
0.00583036,827.143
0.00614227,831.432
0.00608587,837.699
0.00628986,846.642
0.0064459,851.845
0.00630673,856.11
0.00621108,859.524
0.00635392,864.859
0.00629425,872.387
0.0065453,881.647
0.0063898,886.686
0.00654293,891.035
0.00665839,895.182
0.00674281,900.686
0.00673894,908.097
0.00664745,911.995
0.00683277,899.087
0.00657549,888.779
0.00677085,886.614
0.00671777,891.027
0.0065813,901.688
0.00675448,909.499
0.00685707,916.324
0.00684083,922.72
0.00691923,930.93
0.00700245,939.948
0.00736887,950.151
0.00715232,955.419
0.0073242,961.42
0.00716399,968.273
0.00752599,979.64
0.00730002,988.041
0.00765188,995.545
0.00748776,999.381
0.00748252,1004.87
0.0078037,1015.08
0.00781493,1024.33
0.00798893,1030.84
0.00781835,1037.04
0.00790009,1043.34
0.00774938,1055.22
0.00829547,1062.13
0.00800481,1068.58
0.00803741,1074.35
0.00806783,1083.58
0.00828441,1093.61
0.0081419,1099.83
0.00831331,1104.96
0.00837635,1113.39
0.00840062,1126.09
0.00839585,1133.38
0.00850216,1139.93
0.00863247,1146.06
0.00890643,1156.93
0.00897862,1167.45
0.00894801,1173.89
0.00888197,1179.42
0.00897535,1190.95
0.00931435,1203.4
0.00931249,1210.95
0.00934276,1216.54
0.00917743,1227.48
0.00954318,1240.73
0.00955306,1246.79
0.00948542,1251.04
0.00961045,1261.96
0.00996568,1274.84
0.00976157,1282.05
0.0099802,1290.38
0.00975264,1301.78
0.00983718,1312.2
0.00983942,1318.7
0.0100719,1325.93
0.0102213,1339.6
0.0102284,1350.03
0.0101869,1356.41
0.0104722,1367.52
0.0104694,1381.19
0.0107978,1391.36
0.0104874,1396.92
0.0107674,1411.39
0.0108783,1422.08
0.0108228,1429.12
0.0107507,1440.06
0.0108619,1454.08
0.0112499,1462.85
0.0110372,1470.44
0.0112469,1484.14
0.0111657,1495.45
0.0114926,1500.42
0.0115002,1513.06
0.0115074,1528.64
0.0117129,1535.45
0.0115726,1547.2
0.0118016,1560.25
0.0118109,1569.85
0.0118488,1578.44
0.0120071,1594.87
0.012205,1605.14
0.0123178,1612.36
0.0120964,1626.6
0.0124541,1640.43
0.0124992,1647.58
0.0125394,1660.15
0.0125891,1672.42
0.0128694,1680.73
0.0128965,1693.14
0.0129459,1709.85
0.0130624,1717.28
0.0130494,1729.24
0.013339,1744.36
0.012973,1754.04
0.013537,1767.84
0.0135078,1783.85
0.0137977,1791.71
0.0135096,1805.53
0.0137992,1820.86
0.0139722,1830.41
0.0141652,1843.99
0.014153,1858.24
0.0141712,1867.64
0.0143349,1882.97
0.0142631,1896.55
0.0144574,1906.45
0.0146737,1924.41
0.0147789,1935.98
0.0148114,1948.13
0.0150341,1963.84
0.0149173,1973.69
0.0152384,1988.11
0.0152288,2004.01
0.0153315,2015.35
0.0154425,2032.67
0.0155476,2043.21
0.0156687,2053.75
0.0157515,2072.29
0.015802,2082.69
0.0159755,2099.23
0.016305,2116.28
0.0162892,2124.36
0.016458,2142.56
0.0164421,2152.49
0.0164827,2166.83
0.0168754,2185.84
0.0166291,2195.76
0.0166848,2214.56
0.0169386,2225.64
0.0168302,2240.06
0.017352,2258.51
0.0173863,2269.62
0.0173952,2289.42
0.0174451,2300.68
0.0178438,2314.97
0.0178285,2331.81
0.0177764,2342.81
0.0179355,2362.61
0.0183291,2375.17
0.0184778,2392.2
0.018307,2406.5
0.0187536,2421.1
0.0187819,2441.39
0.0187282,2452.62
0.0189379,2472.68
0.0188513,2484.43
0.0191957,2504.86
0.0192288,2518.49
0.0191184,2533.79
0.0194776,2551.71
0.0194222,2565.12
0.0198039,2586.2
0.0198514,2598.32
0.0197987,2619.8
0.0199164,2631.61
0.0200831,2651.77
0.0205212,2668.26
0.0205141,2686.31
0.0208722,2701.92
0.0207776,2715.91
0.0208491,2734.61
0.0208429,2749.76
0.0210218,2770.09
0.0212956,2781.98
0.0213951,2804.34
0.021356,2817.78
0.021854,2842.74
0.0218222,2853.13
0.0220841,2874.39
0.0222273,2888.79
0.0222477,2910.88
0.0224524,2925.05
0.0225973,2945.12
0.0228433,2958.93
0.0229509,2979.89
0.0228948,2995.7
0.0231691,3018.37
0.0232487,3032.93
0.0236077,3057.06
0.0234323,3071.66
0.0237878,3093.54
0.023898,3109.59
0.0238457,3130.65
0.0242219,3144.66
0.0245575,3169.74
0.0246316,3184.67
0.024481,3205.63
0.024662,3222.89
0.0250532,3248.34
0.0252467,3293.16
0.0253766,3298.91
0.0255238,3315.67
0.0256468,3331.19
0.0257705,3352.09
0.0259528,3368.94
0.0262028,3390.51
0.0262692,3408.04
0.0263152,3429.79
0.0266066,3448.47
0.0266875,3470.32
0.0268166,3488.38
0.0270586,3510.43
0.0273548,3529.78
0.0274647,3549.66
0.027356,3572.51
0.0276209,3591.59
0.0276563,3613.9
0.0279743,3631.02
0.0281822,3655.56
0.0286367,3676.48
0.028629,3696.02
0.0285711,3717.75
0.0288186,3736.91
0.0293451,3761.88
0.0292085,3782.06
0.0295189,3805.27
0.0296356,3826.42
0.0297781,3848.1
0.0299753,3870.56
0.0300221,3890.21
0.0303727,3915.11
0.0305658,3935.74
0.030584,3957.02
0.0309559,3982.46
0.0310574,4000.31
0.0311945,4023.25
0.0313459,4043.45
0.0317036,4067.76
0.0318108,4091.56
0.0320329,4111.22
0.0323923,4137.9
0.0326824,4160.73
0.0325392,4180.19
0.032829,4205.78
0.0330173,4226.35
0.0332009,4249.31
0.0335911,4275.19
0.0338429,4297.49
0.0338397,4323.3
0.0339189,4345.82
0.0341607,4367.62
0.0343787,4395.06
0.0343366,4417.11
0.0348222,4439.79
0.0350734,4465.9
0.035151,4489.72
0.0350566,4513.84
0.0356983,4540.7
0.0358604,4561.47
0.0362245,4587.88
0.0363718,4612.13
0.0364148,4633.26
0.036817,4660.06
0.0369746,4685.33
0.0371885,4706.81
0.0372201,4734.1
0.0374665,4758.72
0.0377914,4780.94
0.0380565,4806.99
0.0378836,4831.3
0.0382995,4853.39
0.0385694,4879.25
0.0387478,4906.83
0.0392446,4929.27
0.0391304,4956.25
0.0390389,4983.66
0.0398066,5007.8
0.0396462,5032.17
0.0399323,5060.74
0.0400481,5084.55
0.040407,5109.12
0.0405799,5137.81
0.0406321,5165.88
0.0409982,5188.17
0.0410881,5215.92
0.0414611,5243.08
0.0418177,5269.18
0.0420171,5293.78
0.0423284,5324.12
0.0423223,5351.63
0.0424179,5375.94
0.0426773,5402.95
0.0428134,5431.16
0.0433141,5459.47
0.0435257,5482.3
0.0438391,5511.15
0.0441145,5542.3
0.0442027,5568.44
0.0447257,5594.83
0.0448757,5623.29
0.04506,5651.87
0.0452389,5679.29
0.0455885,5705.07
0.0456177,5733.07
0.0459733,5764.75
0.0461377,5794.07
0.046494,5819.58
0.0467678,5847.85
0.0468109,5876.1
0.0471472,5907.16
0.0475501,5933.71
0.0476467,5961.21
0.047923,5991.97
0.0482761,6022.26
0.0486366,6050.09
0.0488447,6075.46
0.0488026,6103.96
0.0492677,6133.59
0.0493421,6164.32
0.0498667,6195.48
0.0500003,6221.78
0.0502024,6250.9
0.0505285,6281.73
0.0508602,6311.12
0.0511322,6340.79
0.0513473,6370.42
0.0517413,6399.15
0.0521866,6431.36
0.0522166,6460.97
0.0523739,6491.17
0.0527264,6518.81
0.0530035,6548.79
0.05307,6579.41
0.0536378,6611.32
0.0539934,6642.58
0.0541631,6672.29
0.0545971,6702.02
0.0550822,6729.23
0.0550425,6760.29
0.0555448,6791.96
0.0555209,6823.32
0.0560775,6856.1
0.0562284,6885.48
0.0566422,6914.41
0.0570363,6944.47
0.0572408,6974.13
0.0575571,7008.96
0.0580481,7041.62
0.058112,7074.59
0.0584289,7105.17
0.0589101,7134.77
0.0590943,7165.65
0.0592569,7197.44
0.0600636,7233.48
0.0600942,7267.73
0.0604282,7299.96
0.0609842,7331.63
0.0612702,7363.65
0.061527,7393.07
0.0618261,7424.07
0.0623799,7454.33
0.0626639,7488.48
0.0629566,7518.93
0.0629449,7549.8
0.0635932,7583.39
0.0640199,7616.93
0.0645676,7653.13
0.0648444,7684.25
0.0651422,7716.12
0.0653909,7747.18
0.0657793,7779.02
0.0663483,7814.44
0.066711,7845.38
0.0672061,7879.55
0.0673327,7910.38
0.0679983,7943.98
0.0681626,7979.12
0.0686896,8012.33
0.0690481,8046
0.0694905,8077.91
0.0699618,8110.58
0.0705246,8144.18
0.0708606,8177.06
0.0714149,8210.7
0.0719021,8242.92
0.072141,8276.4
0.072583,8308.19
0.0730419,8343.15
0.0735007,8376.09
0.0740115,8410.06
0.0746114,8441.69
0.0750474,8476.14
0.0756993,8510.47
0.0759079,8541.37
0.0765613,8576.11
0.0771192,8608.2
0.0775685,8642.26
0.0783149,8675.6
0.0786153,8708.31
0.0792792,8741.19
0.080054,8773.71
0.0805479,8809.22
0.0811443,8841.34
0.0813803,8874.43
0.08205,8907.65
0.0827842,8938.6
0.0835127,8973.49
0.0840686,9006.41
0.0848233,9038.79
0.085285,9071.47
0.086104,9103.11
0.0868338,9135.12
0.0876065,9169.88
0.0881879,9199.06
0.0887649,9232.15
0.0894466,9262.5
0.0905184,9296.6
0.0911547,9329.46
0.0918849,9360.81
0.0928869,9393.58
0.0936262,9424.84
0.0945955,9457.98
0.0952967,9489.27
0.0966045,9520.5
0.097424,9551.25
0.0984675,9581.01
0.099564,9608.03
0.100608,9640.27
0.101483,9667.2
0.102389,9695.29
0.103939,9722.9
0.104787,9752.18
0.106038,9780.59
0.107156,9810.01
0.108474,9837.49
0.109801,9867.1
0.110923,9895.31
0.11219,9923.08
0.113764,9951.7
0.115098,9976.26
0.116131,10005.3
0.117866,10030.1
0.119518,10054.5
0.120688,10077.6
0.122306,10105.6
0.123912,10131
0.125374,10156.9
0.126772,10182.6
0.128834,10208.1
0.1303,10233.2
0.131913,10256.8
0.133796,10278.2
0.135499,10298.7
0.137253,10320.2
0.138979,10345.1
0.141083,10369.6
0.142693,10392.5
0.144438,10417
0.146531,10439.9
0.148543,10462.8
0.150486,10484.3
0.152557,10503.4
0.154034,10520.9
0.160702,10748.1
0.168132,10811.8
0.175381,10868.6
0.182755,10923.2
0.190225,10977
0.198004,11027.8
0.205213,11076.9
0.212837,11128.2
0.220833,11175.4
0.228904,11224.2
0.236892,11268.7
0.244978,11312.6
0.253195,11358.1
0.261533,11399.8
0.269541,11443.9
0.278187,11484.5
0.286862,11525.7
0.295348,11563.6
0.304413,11601.1
0.313303,11642.5
0.322302,11679
0.331198,11718.2
0.34035,11753.3
0.349657,11788.2
0.359157,11825.8
0.368303,11857.1
0.37752,11891.5
0.387036,11926.7
0.396649,11960.6
0.406113,11993.8
0.416015,12027.4
0.425728,12057.8
0.435414,12087
0.444936,12119.3
0.454688,12150.9
0.464792,12179.3
0.474803,12213
0.484403,12240
0.494409,12268.5
0.504401,12300.8
0.514323,12329.6
0.524216,12356.1
0.534537,12385.8
0.544504,12414.7
0.554514,12439.8
0.564416,12470.1
0.574784,12498.6
0.584758,12520.4
0.595331,12552.3
0.605452,12576.8
0.615636,12600.6
0.625891,12629.2
0.63641,12653.5
0.646168,12675.6
0.656437,12704.4
0.666615,12729.5
0.676948,12752.9
0.687543,12779.3
0.69773,12802
0.707828,12822.7
0.718487,12851
0.728488,12875.2
0.739075,12896.2
0.749376,12922.8
0.759724,12944
0.770386,12965.9
0.780792,12992.6
0.791597,13016.9
0.801734,13034.7
0.812548,13058.6
0.82284,13080.9
0.833559,13098.9
0.843789,13123.9
0.854667,13146.5
0.864895,13163
0.875333,13189.3
0.885798,13208.9
0.896307,13228.2
0.906821,13251.1
0.917602,13274.5
0.927929,13288.3
0.938607,13311.9
0.949225,13334.5
0.959713,13351.3
0.970624,13374.7
0.981405,13395.6
0.991997,13411
1.00251,13431
1.01361,13452.8
1.02385,13468.9
1.03473,13489.2
1.04518,13508.8
1.05605,13523.7
1.06646,13546.3
1.07723,13567.6
1.08806,13581.8
1.09911,13600.8
1.10957,13621.2
1.12025,13635
1.13127,13655.8
1.14221,13675.7
1.15295,13690.1
1.16381,13708.5
1.17456,13728.4
1.18527,13743.3
1.19613,13760.3
1.20757,13780.9
1.21831,13794
1.22919,13811.2
1.24001,13831.4
1.25088,13843.1
1.27212,13864.8
1.29331,13882
1.31436,13894.7
1.3356,13910.7
1.35674,13929.6
1.37784,13945.2
1.39908,13961
1.42027,13978.6
1.44132,13990.4
1.46261,14006.1
1.48366,14024.8
1.50485,14038.6
1.52604,14053.9
1.54728,14072
1.56829,14084.3
1.58952,14099.7
1.61067,14114.8
1.63181,14128.8
1.65305,14143.9
1.67424,14160.2
1.69529,14173.4
1.71653,14188.3
1.73768,14205.6
1.75882,14216.6
1.78001,14231.2
1.8012,14244.6
1.82226,14259.4
1.84359,14274.6
1.86469,14288.5
1.88583,14301
1.90702,14312.4
1.92821,14329
1.94926,14343.1
1.97055,14353.1
1.99169,14368.9
2.01279,14380.2
2.03403,14393.6
2.05518,14407.9
2.07627,14422.5
2.09751,14434.2
2.1187,14444.7
2.13975,14460.2
2.16099,14471.1
2.18218,14485.9
2.20324,14496
2.22457,14508.6
2.24566,14522.5
2.26681,14535
2.288,14546.3
2.30924,14559.2
2.33029,14570
2.35153,14580.8
2.37263,14592.2
2.39377,14605.2
2.41496,14617.2
2.4362,14627.5
2.4573,14640.4
2.47849,14651
2.49968,14663.8
2.52078,14674.6
2.54197,14686.3
2.56316,14697.2
2.58421,14707.1
2.60545,14720.1
2.62664,14728.3
2.64779,14743.4
2.66898,14750.8
2.69022,14759.6
2.71122,14772.6
2.73251,14781.8
2.75361,14793.5
2.7748,14803.3
2.79599,14812.5
2.81713,14822.6
2.83828,14834.6
2.85947,14847.2
2.88066,14854.7
2.90176,14864.7
2.92295,14875.3
2.9441,14883.4
2.96519,14895.8
2.98648,14904.4
3.00762,14913.3
3.02881,14923.6
3.04996,14933.7
3.0711,14943.6
3.09225,14950.5
3.11349,14962.5
3.13463,14968.5
3.15573,14977.3
3.17692,14989.1
3.19811,14996.6
3.21926,15009.8
3.2405,15016.9
3.26164,15024.1
3.28274,15032.9
3.30393,15043.9
3.32503,15051.7
3.34622,15060.4
3.36746,15071.2
3.38856,15075.7
3.40975,15086.1
3.43089,15098.5
3.45213,15101.9
3.47323,15112.1
3.49447,15119.1
3.51556,15126.3
3.53671,15135.5
3.55795,15146
3.57909,15150.9
3.60033,15158.7
3.62143,15169.4
3.64257,15175.7
3.66376,15184.5
3.68496,15194.6
3.7061,15196.7
3.7272,15206.6
3.74839,15216.2
3.76949,15221
3.79073,15231.4
3.81192,15240.2
3.83306,15244.4
3.85425,15251.4
3.8754,15260
3.8965,15267
3.91773,15273.3
3.93893,15282.2
3.96007,15286.1
3.98126,15295.4
4.00241,15304.9
4.02355,15308.6
4.04474,15315.9
4.06593,15325.5
4.08699,15331.2
4.10818,15337.2
4.12942,15346.5
4.15051,15351.2
4.1718,15357.6
4.1929,15366.9
4.21404,15371.3
4.23519,15377.6
4.25638,15384.8
4.27748,15389.9
4.29871,15396.9
4.31991,15405
4.341,15409.4
4.36224,15417.1
4.38343,15424.2
4.40448,15428.7
4.42568,15434.7
4.44687,15445.7
4.46797,15446
4.4892,15454.1
4.51035,15460.3
4.53145,15464.6
4.55268,15472.4
4.57388,15479.5
4.59497,15483.6
4.61617,15489.3
4.6374,15495.2
4.65846,15500.3
4.67969,15504.5
4.70089,15512.5
4.72198,15516.2
4.74327,15523.1
4.76441,15529.4
4.78551,15534.9
4.80666,15540.9
4.82789,15544.8
4.84895,15550.9
4.87018,15555.1
4.89133,15561.1
4.91247,15567.7
4.93376,15572.1
4.95495,15577
4.976,15582
4.99719,15587.2
5.01838,15593
5.03948,15597.6
5.06072,15602.3
5.08191,15605.5
5.10296,15610.8
5.1242,15617.1
5.14539,15622.3
5.16654,15628.8
5.18768,15631.3
5.20887,15636.4
5.22992,15643
5.25121,15648
5.27231,15650.6
5.2935,15655.2
5.31469,15659.1
5.33588,15664.4
5.35703,15670.9
5.37817,15673.3
5.39936,15676.3
5.42046,15681.2
5.44165,15686.7
5.46289,15689.7
5.48394,15696.1
5.50523,15700.1
5.52637,15702.4
5.54752,15707.6
5.56861,15713.9
5.58985,15716.1
5.6109,15722.1
5.63219,15725.3
5.65333,15726.4
5.67443,15733.1
5.69567,15737.2
5.71686,15741
5.73796,15746.5
5.7592,15748.7
5.78034,15752.5
5.80149,15756.8
5.82268,15761.6
5.84387,15763.3
5.86497,15767.8
5.8862,15771.9
5.90735,15773.7
5.9285,15779.8
5.94964,15785.1
5.97088,15786.9
5.99193,15789.8
6.01317,15793.9
6.03427,15796.7
6.05541,15801
6.07665,15806.4
6.09784,15806.8
6.11898,15811.6
6.14013,15815.7
6.16132,15816.5
6.18247,15822.2
6.20366,15825
6.22485,15825.5
6.2459,15829.2
6.26718,15835.6
6.28833,15836.4
6.30952,15842.2
6.33067,15843
6.35186,15845.2
6.37291,15848.7
6.39415,15855.9
6.41529,15856.3
6.43648,15857.5
6.45763,15863.5
6.47882,15862.5
6.49992,15868
6.52115,15872
6.5423,15872.4
6.56349,15876.3
6.58464,15880.2
6.60583,15881.1
6.62693,15882.4
6.64821,15890.3
6.66931,15887.4
6.6905,15892.7
6.7116,15899.2
6.73284,15898.7
6.75393,15902
6.77517,15905.1
6.79622,15907.4
6.81742,15907.2
6.83861,15913.6
6.8598,15912.8
6.88099,15916.5
6.90218,15921.1
6.92328,15921.5
6.94442,15923.4
6.96562,15928.4
6.98685,15928.3
7.00795,15928.7
7.02919,15934.8
7.05024,15934.9
7.07148,15939.4
7.09262,15942.4
7.11382,15943.4
7.13491,15943.9
7.15615,15951.1
7.17725,15952.1
7.19844,15951.1
7.21963,15957.4
7.24078,15954.7
7.26192,15957.7
7.28316,15963.3
7.30426,15962.8
7.32545,15963.8
7.34669,15967.9
7.36779,15969
7.38893,15968.3
7.41012,15972.1
7.43122,15975.7
7.45251,15975.8
7.47365,15979.6
7.49479,15981.4
7.51589,15982.7
7.53718,15985.8
7.55823,15986.1
7.57942,15985.6
7.60061,15989.4
7.62176,15992
7.64295,15993.2
7.66419,15996.2
7.68528,15997.8
7.70643,15995.6
7.72762,16001.2
7.74877,16001.6
7.76991,16001.7
7.79115,16005
7.81225,16003.7
7.83344,16007.6
7.85463,16010.8
7.87577,16014.9
7.89687,16013.3
7.91816,16016
7.93921,16018.2
7.96045,16017.1
7.98159,16021
8.00278,16022.3
8.02397,16019.9
8.04517,16022.2
8.06626,16025.4
8.08741,16026.6
8.10865,16027.9
8.12979,16028.1
8.15089,16027.7
8.17213,16028.6
8.19318,16031.7
8.21446,16033.8
8.23566,16037.3
8.2568,16039.5
8.27785,16036.6
8.29909,16038.6
8.32023,16042.4
8.34143,16042.2
8.36262,16042.4
8.38371,16044.1
8.40486,16044.6
8.42614,16045.1
8.44729,16050
8.46843,16045.9
8.48963,16048.6
8.51077,16051.5
8.53192,16050
8.55311,16051.6
8.57425,16053
8.59544,16055.2
8.61659,16054.5
8.63778,16058.9
8.65888,16058
8.68016,16056.9
8.70121,16059.5
8.72241,16059.8
8.74355,16059.4
8.76469,16063.2
8.78593,16063.1
8.80712,16062.6
8.82832,16064.8
8.84941,16062.3
8.8706,16064.7
8.8918,16065.2
8.91294,16066.5
8.93413,16062.4
8.95523,16068.8
8.97642,16067.4
8.99757,16067.9
9.01881,16071
9.0399,16069.6
9.06109,16069.7
9.08224,16072.8
9.10338,16073.7
9.12458,16073.8
9.14577,16073.6
9.16691,16074.7
9.1881,16071
9.2093,16075.6
9.23044,16075.6
9.25163,16073.9
9.27278,16074.9
9.29392,16076.2
9.31506,16074
9.3363,16076.9
9.35745,16076.9
9.37864,16074.7
9.39983,16077.7
9.42093,16080.5
9.44212,16077.2
9.46326,16079.9
9.48446,16078.6
9.5056,16077.4
9.52675,16078.4
9.54789,16079.5
9.56904,16078.8
9.59032,16083.1
9.61142,16081.6
9.63261,16079.7
9.65375,16079.4
9.67495,16081.9
9.69609,16077.2
9.71728,16080.7
9.73843,16081.5
9.75957,16080.3
9.78076,16084.3
9.80191,16082.7
9.8231,16082.1
9.84429,16082.7
9.86544,16082.8
9.88653,16081.4
9.90772,16079.6
9.92892,16083
9.95006,16080.3
9.9713,16083.3
9.9924,16082.7
10.0136,16081.3
10.0348,16080.9
10.056,16081.4
10.0771,16080.2
10.0983,16081.1
10.1194,16081.6
10.1406,16083.1
10.1618,16081.4
10.183,16083.2
10.2041,16080.4
10.2253,16079.8
10.2465,16082
10.2676,16079.5
10.2888,16079.5
10.31,16080
10.3311,16078.7
10.3523,16080.8
10.3735,16080.3
10.3947,16079.6
10.4159,16077.7
10.437,16078.7
10.4581,16076.6
10.4793,16076.1
10.5005,16077.6
10.5216,16075.2
10.5428,16077.7
10.564,16076.2
10.5851,16078.7
10.6063,16076.1
10.6275,16074.3
10.6486,16075.8
10.6698,16072.7
10.691,16074.2
10.7121,16071.5
10.7334,16074
10.7545,16072.2
10.7756,16070.8
10.7967,16070.7
10.818,16070.5
10.8391,16070.4
10.8603,16069.1
10.8814,16066.3
10.9026,16068.1
10.9237,16068.1
10.9449,16067.5
10.9661,16067.8
10.9873,16065.7
11.0085,16063.9
11.0296,16063.3
11.0508,16063.4
11.072,16061
11.0931,16060.1
11.1143,16060.7
11.1354,16058.9
11.1566,16062.2
11.1778,16057.2
11.199,16056.7
11.2201,16058.1
11.2413,16055.8
11.2624,16054.4
11.2836,16054.5
11.3048,16054.8
11.326,16052.8
11.3471,16053.8
11.3683,16052.9
11.3894,16050.5
11.4106,16050.7
11.4317,16048.2
11.4529,16046.5
11.474,16047.6
11.4953,16044.3
11.5165,16042.8
11.5377,16044.2
11.5587,16040.8
11.5799,16038.6
11.601,16040.3
11.6223,16040.5
11.6434,16036.2
11.6646,16035.9
11.6858,16036.4
11.7069,16034
11.7281,16036.1
11.7493,16031.4
11.7705,16030.8
11.7916,16029.4
11.8127,16027.1
11.834,16026.1
11.8551,16026.4
11.8763,16023.5
11.8974,16021.1
11.9186,16022.7
11.9398,16020.9
11.961,16016.5
11.9821,16018.3
12.0033,16014.2
12.0244,16011.9
12.0456,16014.4
12.0668,16013.2
12.088,16009.8
12.1092,16010.1
12.1303,16008.2
12.1515,16005.3
12.1726,16004.9
12.1938,16004.1
12.215,15999.1
12.2361,16000.6
12.2573,15997.2
12.2784,15992.1
12.2997,15994.6
12.3208,15992.1
12.342,15988.6
12.3631,15987.5
12.3843,15988.1
12.4055,15984.5
12.4267,15983.4
12.4478,15982.3
12.469,15977.4
12.4901,15979.6
12.5113,15976.9
12.5324,15974.5
12.5537,15973.9
12.5748,15969.7
12.596,15967.7
12.6171,15965.6
12.6383,15965.6
12.6594,15960.1
12.6807,15961.2
12.7018,15959.2
12.7231,15954.5
12.7442,15953.6
12.7654,15951.3
12.7865,15947.9
12.8077,15947.2
12.8288,15945.4
12.8499,15942.5
12.8712,15941.6
12.8924,15941.8
12.9135,15934.8
12.9347,15933.6
12.9558,15932.3
12.977,15927.6
12.9981,15925.6
13.0193,15923.6
13.0405,15919
13.0617,15918.8
13.0828,15914.9
13.104,15912.6
13.1251,15907.8
13.1463,15907.4
13.1674,15903.6
13.1887,15902.6
13.2098,15900
13.231,15892.7
13.2522,15892.7
13.2733,15891
13.2945,15889.3
13.3157,15884.4
13.3368,15879.2
13.358,15876.4
13.3792,15873.6
13.4003,15870.9
13.4214,15868.8
13.4427,15863.9
13.4638,15861.6
13.485,15857
13.5062,15854.6
13.5273,15851.6
13.5485,15847.7
13.5696,15846
13.5908,15840.1
13.6119,15837.1
13.6332,15833.6
13.6543,15829
13.6755,15826.9
13.6967,15819.2
13.7178,15817.3
13.7389,15810.7
13.7602,15809.1
13.7813,15802.7
13.8024,15798.1
13.8237,15794.2
13.8448,15788.4
13.866,15785.3
13.8871,15780.7
13.9083,15773.9
13.9295,15771.3
13.9507,15764.1
13.9718,15761.3
13.9929,15756
14.0142,15750.8
14.0353,15744.4
14.0565,15740.2
14.0777,15733.6
14.0988,15726.1
14.1199,15721.5
14.1412,15715.2
14.1623,15706.4
14.1834,15703.6
14.2047,15698.5
14.2258,15689.6
14.247,15684.5
14.2682,15674.3
14.2894,15666.6
14.3105,15662.7
14.3316,15656.9
14.3528,15648.9
14.374,15641.2
14.3952,15633.7
14.4163,15622.3
14.4375,15619.4
14.4587,15608.7
14.4798,15599
14.501,15590.2
14.5222,15582.7
14.5433,15571.3
14.5645,15563.7
14.5857,15554.9
14.6069,15543
14.628,15534.6
14.6492,15525.8
14.6703,15512
14.6915,15505.9
14.7127,15495.7
14.7339,15480.5
14.755,15474.1
14.7762,15462
14.7973,15448
14.8186,15439.8
14.8398,15426
14.8609,15411.2
14.882,15398.6
14.9033,15389.7
14.9244,15371.5
14.9455,15361.4
14.9667,15348.6
14.9879,15330.8
15.0091,15321.1
15.0303,15305
15.0514,15286.7
15.0726,15273.6
15.0937,15261.3
15.1148,15244.5
15.1361,15229.6
15.1573,15215.7
15.1784,15192.4
15.1996,15181.9
15.2207,15165.6
15.2419,15144.7
15.263,15127.5
15.2843,15109.4
15.3053,15087.7
15.3266,15071.1
15.3477,15052.6
15.3689,15031
15.3901,15012.9
15.4113,14993.6
15.4324,14968.9
15.4536,14949.3
15.4748,14929.7
15.4959,14906.2
15.5171,14884.5
15.5383,14863.3
15.5594,14836.8
15.5806,14816.5
15.6018,14791
15.6229,14762.8
15.6441,14736.2
15.6653,14715
15.6864,14685
15.7077,14660.7
15.7288,14633.1
15.75,14598.9
15.7712,14574.7
15.7924,14545.6
15.8135,14511.2
15.8347,14482.8
15.8559,14451.6
15.877,14413
15.8982,14379.8
15.9194,14345.2
15.9405,14300.3
15.9618,14259.4
15.9829,14219.5
16.004,14173.1
16.0252,14131.6
16.0465,14078.2
16.0675,14004
16.0888,13937.2
16.11,13855.6
16.1311,13759.2
16.1523,13649.9
16.1735,13531.5
16.1947,13381.4
16.2159,13238.5
16.2371,12978
16.2582,12661.2
16.2795,12250.1
16.3008,11763.3
16.3219,11087.6
16.3434,9918.6
16.3648,7781.58
16.3861,6446.6
16.4076,4560.48
16.429,2997.2
16.4375,1456.79