File: data/PrimaryData/Steel_4130/Tensile_002.csv
Displacement (mm),Load (N)
-0.000225145,-21.3756
1.63342e-05,-20.0625
0.000165886,-19.7305
6.10757e-05,-20.1799
-6.86279e-05,-20.5776
5.08721e-06,-19.5659
-2.3586e-05,-19.6652
-7.17531e-05,-19.1476
-5.56381e-05,-17.6968
-0.000149619,-19.0258
0.000112715,-17.675
-0.000148994,-18.5004
-1.75408e-05,-16.8739
-0.00011821,-14.928
-3.63088e-05,-14.0124
8.85234e-05,-14.2957
-0.000131339,-13.2658
8.08456e-05,-10.5261
0.000215619,-9.63884
4.58702e-05,-8.80367
8.51067e-05,-6.89549
-0.000345104,-5.3572
0.000164356,-3.73115
0.000146151,-1.21144
-3.72612e-05,-1.30026
7.35421e-05,2.20438
-0.000176794,3.03431
4.07062e-05,5.72663
0.000119697,9.87763
-7.93826e-05,10.6852
0.00012633,14.5991
-4.0075e-06,15.6562
0.000288732,20.1666
6.0095e-05,22.9984
0.000680279,27.7055
0.000177914,29.5722
0.000464089,27.1128
0.000153295,25.7518
0.000256743,28.8765
0.000174109,30.8169
0.000573087,34.9534
0.000557955,40.5577
0.000643324,45.6175
0.000213308,51.2888
0.000513018,56.638
0.000424403,64.6861
0.000460449,70.31
0.00070296,77.205
0.000976847,85.6431
0.000669682,93.4813
0.00103638,99.8247
0.000806777,108.243
0.000662917,115.619
0.000537645,123.582
0.000913757,131.995
0.000984248,140.389
0.000854262,148.71
0.00114048,158.882
0.00100557,166.864
0.00138359,179.13
0.00100597,190.234
0.0013785,200.925
0.00169319,216.103
0.00146822,228.09
0.00171573,242.074
0.0018979,256.42
0.0016464,269.272
0.00177485,283.679
0.00202697,295.579
0.00176296,307.567
0.00218712,322.467
0.00225018,335.966
0.00251743,351.254
0.00224795,363.481
0.00254832,379.849
0.00267321,397.643
0.00294532,414.251
0.00272885,430.6875
0.0029638,448.855
0.00298597,465.287
0.00313492,482.436
0.00353993,498.839
0.00338033,515.559
0.00379029,533.185
0.00375984,550.352
0.00368207,567.846
0.00400478,588.954
0.00421184,609.497
0.00423849,628.326
0.00451134,649.227
0.00426263,666.96
0.0045454,683.58
0.00455907,703.586
0.00493544,724.041
0.00513639,741.409
0.00504732,761.799
0.00546506,783.35
0.00536485,805.624
0.00554393,826.353
0.00556047,849.028
0.00581026,866.976
0.00589095,888.168
0.00622726,909.207
0.00599466,928.023
0.00605197,950.726
0.00669995,974.387
0.00687519,998.095
0.00676565,1019.93
0.00713948,1042.78
0.00713549,1061.42
0.00713261,1081.23
0.00753306,1102.16
0.00762058,1121.95
0.00779479,1144.35
0.00767389,1165.89
0.00793008,1185.09
0.00801627,1198.38
0.00786939,1205.29
0.00813354,1208.12
0.00788639,1206.32
0.00795053,1209.17
0.00791677,1209.82
0.00798025,1212.97
0.0079373,1217.13
0.00791275,1220.14
0.00789675,1222.72
0.00797544,1230.14
0.00789193,1237.61
0.00800691,1246.61
0.00810165,1255.5
0.00818794,1262.58
0.00809872,1268.39
0.00841797,1276.17
0.00834772,1283.08
0.0083214,1295.1
0.00814021,1304.68
0.0083471,1312.82
0.00823221,1316.76
0.00817814,1319.19
0.00834682,1324.17
0.00851403,1331.26
0.00870612,1337.4
0.00880123,1343.6
0.00875285,1347.84
0.00863991,1352.23
0.00876369,1361.48
0.00875212,1373.05
0.00869108,1381.66
0.0088671,1388.75
0.0089096,1393.76
0.00888887,1402.18
0.00879987,1412.45
0.00904284,1424.98
0.00907455,1432
0.00910622,1436.97
0.0091411,1443.61
0.00916899,1453.18
0.00906295,1463.4
0.00923221,1471.07
0.00965182,1478.09
0.00932396,1484.27
0.00938303,1494.18
0.00972042,1507.91
0.00975141,1515.99
0.00975224,1522.17
0.00975759,1528.91
0.00982139,1539.89
0.00996257,1552
0.00988128,1560.53
0.0102,1568.63
0.0101676,1577.25
0.0102058,1588.16
0.0103006,1602.01
0.0103576,1610.15
0.0103437,1617.1
0.00999505,1625.69
0.010341,1637.34
0.0105974,1649.44
0.0103977,1657.25
0.0103775,1665.24
0.0104442,1677.5
0.0106985,1691.85
0.0108062,1699.77
0.0106799,1707.02
0.0106432,1717.1
0.0109994,1731.33
0.0110139,1742.32
0.0108621,1749.54
0.0109977,1761.4
0.0110739,1775.74
0.0109237,1785.06
0.0113445,1796.66
0.0110243,1806.52
0.0114567,1822.97
0.0112879,1832.66
0.0116312,1841.62
0.0112662,1852.85
0.0114526,1868.71
0.0117961,1878.98
0.0117764,1889.35
0.011698,1902.5
0.0116676,1915.43
0.0118076,1925.21
0.012049,1936.55
0.0124865,1952.49
0.0123552,1965.55
0.0123394,1975.35
0.0126049,1987.31
0.0126384,2004.06
0.0127245,2015.74
0.0126606,2026.18
0.0125566,2038.94
0.0126859,2054.44
0.0125611,2064.73
0.013239,2077.5
0.0130423,2095.43
0.0129118,2107.21
0.0130923,2117.83
0.0133767,2133.49
0.0134393,2148.12
0.0134894,2157.88
0.0136156,2170.3
0.0136346,2188.35
0.0136446,2201.11
0.0135196,2212.88
0.0137868,2230.22
0.0140687,2243.9
0.0141496,2253.36
0.0141946,2270.43
0.014078,2285.26
0.0143237,2297.13
0.0143973,2313.65
0.0145707,2330.62
0.0145993,2339.78
0.0146279,2354.05
0.0148058,2373.39
0.014747,2383.85
0.0148762,2398.59
0.0150368,2416.94
0.0152687,2430.78
0.0151367,2443.47
0.0151316,2461.37
0.0156156,2475.29
0.0152826,2487.6
0.0158191,2511.71
0.0158395,2520.64
0.0160171,2536.85
0.0158908,2554.51
0.0159657,2567.27
0.0162586,2583.93
0.016391,2602.62
0.0165245,2615
0.0163217,2632.24
0.0165186,2649.64
0.0163831,2663.03
0.01649,2683.49
0.0166707,2698.67
0.0170416,2714.58
0.0168829,2734.75
0.01734,2746.29
0.0170851,2762.98
0.0174907,2786.22
0.0175717,2799.48
0.0176121,2819.51
0.0178128,2835.66
0.0176152,2848.41
0.0174367,2871.52
0.0180129,2887.81
0.0179544,2905.46
0.018252,2924.88
0.0183138,2940.33
0.0187791,2964.21
0.0187985,2980.26
0.0186351,2996.35
0.0189352,3018.76
0.018925,3032.79
0.0190954,3054.11
0.018963,3070.17
0.0192438,3087.94
0.0196426,3111.78
0.0193223,3125.42
0.0197031,3149.74
0.0197307,3165.58
0.020117,3184.49
0.0199218,3204.8
0.0201235,3220.64
0.0203107,3245.29
0.0204131,3260.7
0.0206474,3282.38
0.0209337,3300.35
0.0209359,3319.21
0.0210584,3342.1
0.0211309,3359.41
0.0213774,3384.1
0.0216554,3401.68
0.0211856,3425.1
0.0215405,3445.17
0.0216844,3462.83
0.0219276,3486.86
0.0217938,3503.96
0.022257,3530.53
0.0225821,3546.62
0.022496,3572.02
0.02291,3590.16
0.0227936,3613.57
0.0230814,3634.81
0.0233209,3656.83
0.023271,3678.41
0.023199,3697.07
0.0236843,3723
0.0238928,3742.61
0.0240798,3768.52
0.0241175,3784.87
0.0241335,3810.75
0.0243674,3829.68
0.0242975,3856.44
0.0245622,3875.27
0.0246611,3903.1
0.0247414,3922.12
0.0250185,3948.42
0.0254257,3968.73
0.0255155,3993.72
0.0256134,4013.01
0.0255404,4037.46
0.0258979,4060.48
0.0263602,4087.7
0.0261553,4106.04
0.026325,4132.16
0.0266023,4154.39
0.0267979,4181.77
0.0268475,4203.19
0.026875,4228.17
0.0271588,4248.79
0.0274818,4278.66
0.0277229,4300.07
0.0277404,4327.96
0.0276187,4348.83
0.0282659,4378.87
0.0285436,4429.4
0.0282718,4443.22
0.0286562,4465.09
0.0287428,4489.35
0.0289553,4515.04
0.0293961,4537.76
0.0293186,4567.15
0.0293634,4590.09
0.0298569,4619.23
0.0298756,4642.38
0.0297765,4670.1
0.029916,4694.35
0.0304942,4722.19
0.0304579,4746.55
0.0305516,4772.43
0.030927,4801.78
0.0312801,4824.4
0.0310808,4853.6
0.0316955,4877.75
0.0318965,4907.35
0.0321047,4931.21
0.0321452,4958.57
0.0322334,4986.29
0.0323897,5013.06
0.0327395,5043.67
0.033025,5067.02
0.0331014,5096.58
0.0331872,5123.85
0.0333664,5149.66
0.0339644,5179.71
0.0339556,5203.36
0.0341054,5237.13
0.0345715,5262.66
0.0347159,5292.24
0.0348593,5323.97
0.0348778,5348.98
0.0352483,5379.93
0.0353093,5406.69
0.0359193,5437.83
0.0356905,5466.06
0.0361078,5491.33
0.0359752,5525.8
0.0363287,5553.35
0.0365108,5583.06
0.036821,5615.26
0.0369661,5641.06
0.0374148,5672.56
0.0371535,5700.69
0.0375448,5730.32
0.0378386,5762.98
0.0386543,5793.29
0.038647,5822.56
0.0388485,5854.91
0.0392149,5881.93
0.0393739,5912.62
0.0395441,5945.88
0.0396954,5972.89
0.0400258,6006.39
0.0403026,6038.2
0.0401676,6067.19
0.040918,6101.49
0.0410336,6131.89
0.0411343,6160.94
0.0412861,6195.96
0.0415833,6225.04
0.0420671,6255.84
0.0424947,6291.24
0.0421548,6321.11
0.0424578,6352
0.0431382,6388.9
0.0432994,6418.49
0.0434993,6448.26
0.0437989,6483.67
0.0442941,6517.72
0.0441329,6545.36
0.0445716,6578.73
0.0448698,6614.08
0.0448358,6643.96
0.0450144,6678.2
0.0456409,6712.93
0.0457813,6742.4
0.0460765,6774.37
0.0464169,6811.25
0.046683,6844.1
0.0468174,6874.67
0.047244,6911.74
0.0474387,6947.03
0.047849,6981.28
0.0483452,7017.38
0.0487939,7053.34
0.0488183,7084.64
0.0491121,7116.63
0.0495766,7155.09
0.0495685,7189.5
0.0499484,7224.89
0.0504552,7256.75
0.0509319,7293.19
0.0508953,7329.56
0.0510896,7359.98
0.0514912,7394.19
0.0520956,7433.88
0.0524933,7470.41
0.0527007,7501.42
0.0529603,7539.02
0.053397,7575.57
0.0538157,7611.59
0.054343,7645.71
0.0546538,7683.56
0.0547467,7720.08
0.0549866,7758.85
0.0556752,7793.88
0.0556362,7824.97
0.0560406,7863.51
0.0566629,7901.84
0.0567803,7938.23
0.0572059,7973.43
0.0578803,8009.96
0.0582417,8045.97
0.0583676,8083.72
0.0588275,8117.14
0.0595622,8152.31
0.059721,8191.58
0.0601021,8227.625
0.0604644,8265.12
0.0608995,8300.95
0.0610691,8336.56
0.061747,8374.36
0.0620028,8412.87
0.0626858,8452.69
0.0630972,8489.08
0.063547,8525.17
0.06398,8563.53
0.0643737,8603.1
0.0648916,8642.53
0.064786,8677.38
0.0654194,8711.96
0.0663334,8751.57
0.0663744,8789.6
0.0668147,8829.61
0.0675602,8868.55
0.0679807,8904.5
0.06852,8939.13
0.0690286,8977.75
0.069709,9017.82
0.0697849,9053.99
0.0703172,9094.66
0.0709017,9130.31
0.0711667,9164.01
0.0720548,9203
0.0721561,9238.83
0.073188,9279.19
0.0734192,9318.48
0.0738422,9355.11
0.0747086,9392.8
0.0752078,9427.73
0.0755039,9463.5
0.0766314,9503.49
0.076885,9540.14
0.0775924,9579.625
0.0782061,9617.85
0.0788028,9654.96
0.0795485,9691.62
0.0799717,9727.92
0.0806539,9765.92
0.0814335,9801.09
0.0821346,9838.2
0.0827087,9872.94
0.0832873,9910.94
0.0841301,9949.78
0.0849447,9987.53
0.0855809,10023.4
0.0862358,10058
0.0865447,10092.5
0.0873784,10130.4
0.0883049,10165
0.0889373,10202.6
0.0896313,10236.7
0.0904963,10274.7
0.0915869,10311
0.092158,10346.3
0.0931413,10383
0.0940372,10418.4
0.0951373,10453.8
0.096117,10488
0.0969843,10521.1
0.0976626,10552.7
0.0987224,10586.9
0.0997633,10620.5
0.100866,10655.1
0.10155,10686.5
0.102922,10720.6
0.104342,10753.7
0.10533,10786.8
0.106668,10820.7
0.107475,10854.3
0.109045,10887.1
0.110179,10920.5
0.111783,10951.4
0.112468,10982.4
0.114376,11015
0.115866,11047.3
0.117251,11076.1
0.118126,11104.3
0.11979,11132
0.121357,11161.9
0.122532,11192.6
0.124219,11218.9
0.125807,11246.4
0.127386,11274.2
0.129006,11301.2
0.130694,11328.7
0.132282,11355.1
0.133904,11382.5
0.135583,11406.2
0.137385,11432.5
0.139372,11458.8
0.141153,11486
0.143206,11512.6
0.144575,11535.9
0.146653,11560.8
0.148504,11584.6
0.150619,11609
0.15278,11636
0.154574,11658.6
0.156512,11682.9
0.158667,11705.8
0.160851,11726.9
0.162876,11750.5
0.16499,11775
0.167449,11798.4
0.169532,11820.9
0.171552,11841.8
0.173806,11863.6
0.176163,11885.1
0.178438,11907
0.180952,11930.2
0.182982,11949.4
0.185272,11969.7
0.187447,11988.6
0.190184,12011.7
0.192447,12030.9
0.194848,12049.3
0.197327,12069.8
0.19991,12086.7
0.202126,12107.4
0.204977,12127.8
0.20719,12145.1
0.209848,12166
0.212437,12183.3
0.214842,12202.4
0.217558,12222.3
0.220049,12239.4
0.223143,12258.7
0.225811,12276.1
0.228029,12292.9
0.230937,12312.4
0.233703,12331.6
0.236367,12348.5
0.239448,12366.125
0.24177,12382.7
0.244682,12399.8
0.247358,12410.8
0.252389,12561.5
0.261847,12673.5
0.272431,12724.8
0.282572,12768.9
0.293169,12815.3
0.303417,12861.6
0.313496,12905
0.324023,12952.8
0.33417,12994.8
0.344783,13034.6
0.355359,13079.9
0.365447,13119.2
0.376029,13159.7
0.386707,13201.8
0.397286,13239.9
0.408028,13277.2
0.418477,13315.3
0.429045,13353.3
0.439842,13389
0.450889,13427.4
0.461414,13460.6
0.472485,13493.5
0.482807,13529.8
0.494155,13563.3
0.505076,13598.4
0.516019,13628.8
0.526942,13661.3
0.537762,13691.6
0.548287,13722.2
0.559638,13755.8
0.570419,13784.7
0.581563,13814.6
0.592459,13846.1
0.603477,13873.2
0.614149,13903.6
0.625587,13935.4
0.63667,13963.5
0.647565,13989.6
0.658667,14018
0.669949,14045.1
0.680845,14072
0.692096,14100.5
0.702991,14126.4
0.714133,14150
0.725391,14180.8
0.736289,14202.4
0.747268,14230.8
0.758676,14255.7
0.769612,14277.9
0.780627,14302.2
0.791718,14331
0.802816,14356.4
0.814201,14377.8
0.825507,14405.9
0.836408,14426.8
0.847401,14447.9
0.85847,14475.2
0.869888,14495.9
0.881314,14520.9
0.892542,14544.9
0.903636,14565.5
0.914763,14587.1
0.926214,14612.2
0.93768,14632.2
0.948526,14653.4
0.959931,14677
0.971032,14696.2
0.982664,14716.3
0.99343,14739.7
1.00467,14758.7
1.01597,14779.2
1.02726,14802.9
1.03838,14822.6
1.04983,14840.5
1.06146,14862.8
1.07252,14883.3
1.08355,14899.6
1.09528,14922.7
1.10633,14942.4
1.11758,14956.5
1.12919,14980.4
1.14051,14997.4
1.15151,15015.2
1.16272,15035.4
1.1739,15051.2
1.18547,15069.9
1.19683,15090.5
1.20838,15109.4
1.21958,15126.5
1.23061,15144.2
1.24239,15164.5
1.25667,15178.5
1.27781,15197.5
1.29896,15215.2
1.32015,15230.2
1.34134,15247.8
1.36253,15265.2
1.38363,15280.5
1.40487,15299.8
1.42597,15314
1.44716,15328.8
1.46835,15346.4
1.4895,15364.1
1.51059,15379.5
1.53178,15394.9
1.55298,15412.1
1.57412,15423.1
1.59531,15443.4
1.61646,15459.5
1.6376,15474.9
1.65879,15488.9
1.67994,15504.2
1.70113,15518.6
1.72227,15533.5
1.74342,15550.1
1.76461,15562.5
1.78585,15577.4
1.80699,15592.4
1.82814,15606.7
1.84928,15621.3
1.87047,15634.7
1.89157,15648.1
1.91281,15661.8
1.93391,15677
1.95505,15689.9
1.97629,15705.4
1.99744,15721.2
2.01858,15729.8
2.03977,15745.3
2.06087,15761.3
2.08202,15774.4
2.10321,15786.2
2.12444,15798
2.14554,15809.8
2.16678,15823.6
2.18788,15835.8
2.20907,15851.1
2.23026,15862
2.25141,15874.8
2.27255,15886.9
2.29374,15899.1
2.31489,15911.3
2.33608,15924.1
2.35727,15936.4
2.37846,15948.3
2.39956,15960.9
2.42071,15971
2.4419,15984
2.46304,15997.6
2.48423,16005.8
2.50542,16016.8
2.52652,16030.9
2.54781,16041.3
2.56891,16052.8
2.5901,16062.5
2.61124,16073
2.63243,16082.2
2.65344,16096.1
2.67472,16108.2
2.69587,16117
2.71706,16127.7
2.73825,16137.9
2.75939,16148.4
2.78049,16161.7
2.80168,16172
2.82288,16182.3
2.84402,16191.2
2.86517,16201.2
2.88636,16211.9
2.90746,16223.8
2.92874,16232.1
2.94984,16239
2.97103,16252.5
2.99217,16262.2
3.01341,16270.3
3.03451,16283.3
3.05575,16290.1
3.0768,16299.2
3.09799,16309
3.11914,16320.8
3.14037,16328.4
3.16152,16339.4
3.18266,16347.5
3.20385,16355.9
3.225,16367
3.24614,16375.3
3.26734,16382.5
3.28848,16393.2
3.30972,16400.4
3.33077,16408.8
3.35201,16418.4
3.37315,16429.8
3.39439,16435.3
3.41549,16442.5
3.43663,16452.8
3.45778,16461.2
3.47897,16472.2
3.50016,16480.4
3.52135,16485.8
3.5425,16496.4
3.56369,16504.8
3.58483,16512.2
3.60603,16520.9
3.62712,16528.4
3.64832,16535.9
3.66946,16543.8
3.69065,16553.1
3.7118,16555.8
3.73303,16568.9
3.75413,16574.7
3.77537,16582
3.79647,16589.7
3.81771,16598.6
3.83881,16604.2
3.86,16611.4
3.88114,16620.6
3.90229,16626.1
3.92348,16635.1
3.94467,16644
3.96586,16646.2
3.98701,16656.4
4.00815,16663.1
4.02934,16669.6
4.05049,16677.3
4.07172,16682.6
4.09282,16686.7
4.11401,16696.9
4.13511,16705
4.15635,16709.5
4.17749,16715.3
4.19869,16724.2
4.21978,16728.7
4.24098,16736.5
4.26212,16744.9
4.28336,16747.3
4.3045,16755.6
4.32565,16762.8
4.34675,16769
4.36798,16776.2
4.38913,16782.9
4.41032,16785.4
4.43151,16791.6
4.45261,16797.7
4.47375,16804
4.49499,16812
4.51614,16820.8
4.53733,16821
4.55847,16829.4
4.57967,16833.8
4.60076,16840.9
4.622,16847.3
4.64315,16851.6
4.66429,16856.2
4.68548,16863.9
4.70658,16870.2
4.72777,16873.7
4.74901,16878.1
4.77015,16886.4
4.7913,16889.6
4.81244,16896.2
4.83359,16900
4.85478,16904.8
4.87607,16912.3
4.89712,16916.8
4.91831,16921.75
4.9395,16925.7
4.96064,16932.2
4.98179,16936.1
5.00298,16941.6
5.02408,16950
5.04527,16951.3
5.06651,16958.2
5.08761,16961.8
5.10875,16965.5
5.12994,16971.1
5.15109,16976.6
5.17223,16983.1
5.19352,16986.4
5.21466,16988.125
5.23576,16993.4
5.257,16998.8
5.2781,17006.9
5.29929,17008.5
5.32048,17012.8
5.34162,17015.8
5.36277,17020.4
5.38396,17025.5
5.40506,17030.6
5.42625,17035
5.44749,17038.2
5.46863,17042
5.48978,17050.1
5.51097,17051.1
5.53211,17054.9
5.55326,17059.1
5.57445,17062.7
5.59555,17066.4
5.61669,17071.6
5.63798,17077.4
5.65912,17078.1
5.68031,17085.1
5.70146,17087.8
5.7226,17090.8
5.74375,17096.7
5.76499,17099.3
5.78608,17102.4
5.80723,17106.4
5.82847,17112.1
5.84956,17115.3
5.8708,17119
5.89195,17122.7
5.91309,17122.8
5.93424,17128.2
5.95543,17133.5
5.97657,17136.8
5.99772,17139.8
6.01896,17141.1
6.04005,17144.375
6.06125,17150.3
6.08244,17153.8
6.10358,17155.8
6.12477,17158.6
6.14592,17162.8
6.16702,17164.8
6.18816,17172.8
6.2094,17174.4
6.23054,17173.3
6.25174,17182.1
6.27288,17183.5
6.29403,17184.7
6.31522,17190.7
6.33641,17192.3
6.35751,17190.8
6.3787,17196.6
6.39989,17203.3
6.42108,17202
6.44227,17208.7
6.46342,17210.1
6.48456,17210
6.50571,17215.7
6.5269,17220.2
6.548,17219.2
6.56919,17225.4
6.59043,17228.4
6.61152,17228.4
6.63276,17233.3
6.65386,17237.4
6.67505,17235.3
6.69624,17239.4
6.71743,17244.3
6.73853,17243.6
6.75972,17247.8
6.78092,17250.2
6.80206,17248.4
6.82325,17255.7
6.84444,17257.8
6.86559,17258.8
6.88678,17262.6
6.90792,17266.5
6.92907,17263.6
6.95021,17269.3
6.9714,17273.2
6.9925,17272.7
7.01379,17278.5
7.03493,17281.3
7.05608,17278.1
7.07722,17282.8
7.09841,17286.7
7.11951,17284.6
7.1408,17289.3
7.16194,17292
7.18304,17290.4
7.20428,17296.8
7.22542,17299.6
7.24657,17296.6
7.26776,17301.3
7.28886,17304.9
7.31,17304.7
7.33119,17309
7.35243,17310.9
7.37348,17309.2
7.39477,17314.3
7.41586,17319.7
7.43701,17317.9
7.4582,17318.4
7.47944,17323.6
7.50049,17319.9
7.52173,17323.1
7.54287,17327.5
7.56402,17326.1
7.58526,17331.3
7.60645,17331.3
7.6275,17332.7
7.64874,17334
7.66988,17338.2
7.69098,17338.4
7.71222,17338.5
7.73336,17344
7.75441,17340.5
7.77575,17346.5
7.79684,17349.1
7.81804,17346.2
7.83918,17347.5
7.86042,17350.6
7.88142,17350.4
7.90271,17353.2
7.92385,17354.6
7.945,17353.6
7.96624,17356.3
7.98743,17359.8
8.00848,17359.4
8.02972,17359.8
8.05091,17363.3
8.07201,17364
8.0932,17364.7
8.11444,17367.9
8.13544,17365.6
8.15677,17369.3
8.17792,17369.1
8.19901,17370.5
8.22016,17371.3
8.2414,17374.2
8.26245,17373.8
8.28378,17373.3
8.30488,17375.4
8.32602,17375.4
8.34722,17376.6
8.36845,17378.8
8.3895,17379.5
8.41079,17379.8
8.43189,17381
8.45299,17383.8
8.47422,17382.6
8.49541,17385.7
8.51647,17385.1
8.53775,17387.7
8.55885,17389.3
8.58004,17389.3
8.60119,17388.6
8.62242,17390.3
8.64347,17390.8
8.66471,17391.6
8.68586,17391.2
8.707,17394.4
8.72824,17393.5
8.74943,17393.6
8.77048,17395.4
8.79172,17397.5
8.81287,17397.6
8.83401,17397.2
8.8552,17397.1
8.87639,17397.1
8.89745,17397.8
8.91873,17401.1
8.93988,17400.4
8.96102,17402
8.98216,17402.5
9.0034,17401.9
9.02445,17404.4
9.04574,17405.8
9.06688,17404.7
9.08803,17403.9
9.10922,17404
9.13041,17404.8
9.15151,17405.8
9.17275,17407.3
9.19389,17405
9.21499,17407
9.23618,17409.5
9.25737,17405.9
9.27847,17409.2
9.29976,17410.1
9.32085,17407.4
9.34204,17411.1
9.36314,17410.9
9.38438,17408.7
9.40548,17408.5
9.42672,17410.6
9.44786,17407.8
9.46901,17411.1
9.4902,17413.9
9.51139,17409.8
9.53249,17411.7
9.55373,17411
9.57483,17412.7
9.59602,17413
9.61721,17414
9.63835,17412
9.6595,17411.7
9.68069,17414.6
9.70183,17412.3
9.72302,17415.4
9.74422,17415.7
9.76541,17409.7
9.78651,17412.5
9.8077,17412.4
9.8288,17412
9.84999,17412.4
9.87118,17412.8
9.89237,17410.625
9.91351,17411.7
9.93471,17415.7
9.95585,17410.9
9.97704,17412.1
9.99819,17412.7
10.0193,17410.6
10.0405,17412.9
10.0617,17413.7
10.0828,17410.3
10.1041,17410.2
10.1252,17411.3
10.1463,17411.4
10.1675,17411.7
10.1887,17411.9
10.2099,17409.3
10.2311,17408.6
10.2522,17412.3
10.2733,17406.4
10.2945,17410
10.3157,17409.4
10.3369,17407.3
10.358,17406.9
10.3792,17409.4
10.4003,17407.1
10.4215,17407.4
10.4427,17408.4
10.4638,17405.1
10.4851,17404.9
10.5062,17406.8
10.5274,17403.4
10.5486,17405
10.5697,17403.1
10.5908,17401.3
10.612,17400.75
10.6332,17402.9
10.6543,17401.1
10.6756,17401.7
10.6968,17399.8
10.7179,17398.7
10.739,17397.4
10.7602,17398.7
10.7814,17394.9
10.8025,17395.3
10.8237,17394.625
10.8448,17394.3
10.8661,17394.1
10.8872,17395.1
10.9083,17392.6
10.9295,17390.1
10.9507,17389.9
10.9718,17389.9
10.9931,17386.4
11.0143,17388.9
11.0353,17385.4
11.0566,17385.7
11.0777,17385.5
11.0989,17383.3
11.1201,17381.7
11.1413,17383.1
11.1623,17381.2
11.1836,17380.3
11.2047,17378.8
11.2258,17379.5
11.2471,17379.1
11.2683,17378.9
11.2894,17376.7
11.3106,17374.7
11.3318,17372.5
11.3529,17370.8
11.374,17369.4
11.3952,17369.7
11.4163,17369.5
11.4376,17369.5
11.4588,17368
11.4799,17366.8
11.5011,17362.2
11.5222,17365.4
11.5433,17364.4
11.5646,17361.1
11.5857,17360.2
11.6068,17358.1
11.6281,17358.1
11.6493,17356.5
11.6704,17354.9
11.6916,17352.6
11.7127,17350.6
11.7338,17350.9
11.7551,17348.4
11.7763,17348.9
11.7974,17346.5
11.8186,17343.1
11.8397,17342.6
11.8609,17343.4
11.882,17343.5
11.9033,17339.8
11.9244,17339.4
11.9456,17336.7
11.9667,17335.6
11.9878,17334.4
12.0091,17331.5
12.0303,17328.9
12.0514,17328.8
12.0726,17326.9
12.0938,17325.1
12.1149,17322.1
12.1361,17320.6
12.1573,17316.8
12.1783,17316.7
12.1996,17314.2
12.2208,17311.9
12.2419,17315.1
12.2631,17309.4
12.2843,17307
12.3053,17305.4
12.3266,17304.6
12.3477,17300.6
12.3689,17298.4
12.3901,17298.9
12.4113,17295.5
12.4324,17294.3
12.4536,17294.7
12.4748,17286.875
12.4959,17284.2
12.5171,17284.8
12.5383,17278.9
12.5593,17280.1
12.5806,17279.3
12.6017,17273.4
12.6229,17272.9
12.644,17271
12.6653,17268.4
12.6864,17265.6
12.7076,17264.5
12.7287,17258.9
12.7499,17257.875
12.771,17256.3
12.7923,17251.4
12.8134,17251.7
12.8346,17246.7
12.8557,17241.7
12.8769,17239.9
12.8981,17239.9
12.9192,17234.9
12.9403,17230.5
12.9616,17231.1
12.9827,17223.7
13.0039,17224.9
13.0251,17224.8
13.0463,17217.3
13.0673,17214.8
13.0886,17212.1
13.1096,17208.9
13.1309,17205.9
13.1521,17201.6
13.1733,17196.9
13.1944,17192
13.2156,17191.8
13.2367,17184.3
13.2579,17180.6
13.2791,17180.6
13.3003,17172.4
13.3213,17168.5
13.3426,17164.4
13.3637,17158.3
13.3849,17155.8
13.4061,17153
13.4272,17148.6
13.4484,17142.1
13.4696,17141.2
13.4907,17134.4
13.5119,17127.3
13.5331,17126.7
13.5542,17117.7
13.5754,17114.5
13.5967,17109.4
13.6178,17101.6
13.6389,17095.3
13.6601,17091.4
13.6813,17086.5
13.7024,17078
13.7237,17073.8
13.7448,17067.1
13.766,17060.4
13.7871,17056
13.8083,17048.5
13.8294,17041.5
13.8507,17035.2
13.8717,17028.9
13.8929,17020.1
13.9141,17013.2
13.9353,17005.7
13.9565,16996.3
13.9777,16990.125
13.9987,16981.9
14.0199,16971.4
14.0411,16966.8
14.0623,16956.9
14.0835,16945.3
14.1047,16938.6
14.1258,16929.4
14.147,16920.5
14.1681,16912.4
14.1893,16900.7
14.2104,16889.9
14.2317,16883.8
14.2527,16871.1
14.274,16857.6
14.2951,16849.7
14.3163,16836
14.3374,16826.2
14.3587,16816.4
14.3798,16804.3
14.4009,16789.4
14.4222,16777.9
14.4433,16765
14.4644,16752.3
14.4857,16739.7
14.5068,16727.1
14.528,16711.2
14.5492,16700.1
14.5703,16685.4
14.5914,16670.3
14.6126,16657.2
14.6337,16642.2
14.655,16625.8
14.6762,16609.4
14.6973,16596
14.7185,16576.6
14.7397,16560
14.7608,16547.4
14.782,16524.8
14.8032,16512.1
14.8244,16495.6
14.8455,16473.7
14.8667,16455.3
14.8879,16439.9
14.909,16420.9
14.9302,16402.8
14.9514,16385.3
14.9725,16364
14.9938,16342.7
15.0148,16325.2
15.0361,16304.1
15.0572,16281.1
15.0784,16261.9
15.0995,16239.7
15.1207,16217.4
15.1419,16197.7
15.163,16174.4
15.1843,16149.7
15.2054,16127.6
15.2265,16103.2
15.2478,16077.7
15.2689,16057.3
15.2901,16030.3
15.3113,16004.5
15.3325,15982.1
15.3536,15954
15.3747,15928.6
15.3959,15902.7
15.4171,15874
15.4383,15844
15.4594,15816.5
15.4806,15788.1
15.5018,15756.5
15.5229,15731
15.5441,15697.8
15.5653,15667.4
15.5865,15636.6
15.6076,15605.6
15.6288,15571
15.65,15538.7
15.6711,15507.4
15.6923,15472.8
15.7135,15439.7
15.7346,15403.9
15.7559,15362.4
15.777,15327
15.7982,15288.4
15.8193,15247.5
15.8405,15210.6
15.8617,15169
15.8829,15123
15.9041,15080.7
15.9252,15035.3
15.9464,14989
15.9675,14940.3
15.9887,14887.7
16.0099,14828.6
16.0311,14775.5
16.0522,14718.9
16.0734,14654.6
16.0946,14580.2
16.1157,14494.1
16.1369,14377.8
16.1581,14229.2
16.1793,14046.3
16.2006,13765.5
16.2217,13416.3
16.243,12710.9
16.2644,11670.5
16.2861,7825.5
16.3093,-4264.63
16.3101,-3970.16