File: data/PrimaryData/Steel_1018/Tensile_008.csv
Displacement (mm),Load (N)
0.000198726,13.0388
0.000428899,13.0508
0.000449633,12.9945
0.000166648,12.9375
0.000246722,13.315
0.000470442,12.8081
0.00062861,14.8057
0.000311885,14.1388
0.000322074,13.9142
0.00055383,16.2311
0.000526647,15.7918
0.000401381,17.4629
0.000538955,17.6249
0.000387242,19.2751
0.000343589,20.3601
0.000527593,21.6361
0.00059615,23.0688
0.000763278,25.8598
0.000548538,26.6973
0.000904566,29.7713
0.000562904,32.2659
0.00077445,34.813
0.000713682,38.43
0.000392338,42.4275
0.000449344,45.584
0.000655701,49.8829
0.000513728,53.7767
0.000416309,57.6847
0.000490587,62.6575
0.000845152,68.637
0.000746407,72.5398
0.000811532,80.3485
0.000551727,85.5526
0.000661153,92.9729
0.000968823,100.152
0.000911421,107.389
0.000803907,113.619
0.000849734,122.013
0.00106295,127.913
0.000849442,134.979
0.00112414,143.389
0.000794761,150.67
0.00113661,158.419
0.00105678,169.928
0.00140883,178.079
0.0010687,187.777
0.00127614,197.261
0.0012844,206.53
0.00114181,217.353
0.00127118,229.247
0.00153021,239.507
0.00160499,252.262
0.00174264,262.621
0.00178026,272.619
0.00146344,282.853
0.00171459,294.511
0.00183766,306.631
0.00215897,316.753
0.00208819,327.397
0.00185657,338.13
0.00210149,349.704
0.00212326,361.141
0.00223081,373.887
0.00232877,387.7
0.00235922,400.749
0.00231154,414.29
0.0025081,429.452
0.00264201,443.976
0.00278203,458.087
0.00293684,472.273
0.00292945,486.167
0.00304304,500.229
0.00280034,513.519
0.0031387,527.989
0.00335168,542.139
0.00316755,557.419
0.0033591,572.286
0.00369226,588.681
0.00360244,606.009
0.00362791,623.428
0.00383147,639.924
0.00366801,656.737
0.00396623,673.143
0.00402199,687.724
0.00414674,703.337
0.00447874,720.203
0.00439374,737.043
0.00429059,753.226
0.00459932,772.054
0.00479111,790.802
0.00501878,810.726
0.00507216,829.646
0.0050427,848.069
0.00521848,865.363
0.00520892,883.081
0.0055398,900.951
0.00529243,920.298
0.00574607,941.074
0.00575135,962.609
0.00587838,984.339
0.0062305,1006.39
0.00609912,1026.31
0.00617391,1046.18
0.00660134,1065.71
0.00640972,1085.84
0.00667906,1106.52
0.00671221,1127.99
0.00689684,1150.41
0.00707722,1174.11
0.00713436,1194.75
0.00756154,1215.93
0.00771151,1236.6
0.00764779,1256.83
0.00774994,1279.29
0.00775033,1300.61
0.00795237,1326.66
0.00809159,1349.91
0.00818525,1374.31
0.00852537,1395.21
0.00872289,1416.74
0.00861427,1437.92
0.00885563,1459.21
0.00881517,1484.19
0.00897795,1506.17
0.00903549,1530.82
0.00928896,1551.31
0.00921599,1571.86
0.00934791,1593.09
0.00991211,1615.7
0.00971657,1641.04
0.0100994,1665.94
0.0100523,1687.81
0.0103474,1703.32
0.0105251,1722.4
0.0104025,1743.42
0.0105085,1766.66
0.0106837,1789.91
0.0109703,1813.15
0.0111444,1835.97
0.0111264,1856.72
0.0113099,1877.64
0.0112909,1903.14
0.0116517,1929.58
0.011837,1954.11
0.011879,1977.13
0.0120937,2000.76
0.0120843,2020.25
0.0124382,2048.15
0.0124907,2075.2
0.0126665,2098.55
0.0127123,2121.77
0.0130037,2144.01
0.013482,2168.02
0.0132637,2194.71
0.0133562,2223.57
0.0136699,2247.81
0.0135907,2268.81
0.0138132,2293.77
0.0138279,2320.04
0.0142714,2348.32
0.0142708,2373.37
0.0146954,2398.81
0.0147489,2420.9
0.0150167,2447.3
0.0151775,2475.69
0.0151217,2501.83
0.0152622,2525.39
0.015636,2551.42
0.0156622,2577.59
0.0158064,2607.32
0.0161183,2633.64
0.0163349,2656.55
0.0164692,2682.24
0.0164925,2709.2
0.0167166,2737.89
0.0171617,2763.44
0.0170005,2789.66
0.0171358,2814.71
0.017424,2843.72
0.017364,2871.31
0.0177091,2897.33
0.0177968,2921.27
0.0180203,2949.91
0.0183797,2978.56
0.0183246,3005.62
0.0185566,3030.52
0.0186454,3057.35
0.0188498,3087.89
0.0191437,3117.59
0.0193108,3142.83
0.0193868,3169.71
0.0196675,3200.77
0.019876,3227.98
0.0201338,3253.55
0.0201295,3280.88
0.0203262,3310.85
0.0204576,3341.75
0.0209111,3367.49
0.0209407,3393.7
0.0211059,3424.71
0.0217066,3452.44
0.0218176,3480.69
0.0216504,3505.53
0.0219857,3536.57
0.022147,3565.85
0.0223551,3593.13
0.0225925,3621.74
0.022926,3653.8
0.0229167,3683.32
0.0230673,3708.52
0.0232083,3737.28
0.0235909,3770.08
0.0235255,3797.2
0.023574,3824.09
0.0237642,3855.39
0.0242096,3887.86
0.0242931,3915.05
0.0245526,3941
0.0246768,3973.59
0.0251227,4000.7
0.025129,4027.89
0.0252706,4057.32
0.0255476,4088.94
0.0253946,4116.34
0.025851,4142.48
0.0260966,4173.29
0.0260001,4198.64
0.0262528,4222.76
0.0265064,4253.35
0.0268392,4283.86
0.0266815,4306.67
0.0269766,4332.73
0.0272689,4362.72
0.0273766,4386.71
0.0273951,4413.26
0.0277626,4443.52
0.0278322,4469.28
0.0279263,4493.45
0.0279777,4522.08
0.0284007,4547.56
0.0286087,4570.68
0.0285856,4598.76
0.0287641,4626.45
0.0289433,4650.16
0.0289863,4673.25
0.0292318,4696.27
0.0293691,4715.61
0.0295097,4738.4
0.0295813,4762.37
0.0295915,4782.42
0.0298131,4805.63
0.0300644,4828.45
0.0298878,4845.13
0.0302018,4868.44
0.0303399,4891.9
0.0306747,4911.05
0.0304494,4934.14
0.0306549,4955.44
0.0307353,4974.31
0.0310131,4999.48
0.0310241,5020.05
0.0311589,5039.12
0.0316115,5066.67
0.0313561,5084.69
0.0316131,5105.6
0.0317191,5131.18
0.0318738,5149.48
0.0318754,5173.19
0.0322407,5198
0.0320527,5217.46
0.0322698,5242.36
0.0324746,5265.23
0.0326656,5285.76
0.0327797,5311.36
0.0326573,5331.3
0.0328902,5354.94
0.0332729,5378.53
0.0334706,5398.22
0.0336084,5425.42
0.0337692,5445.57
0.0336707,5469.56
0.0338028,5494.4
0.0340757,5516.9
0.0341477,5542.3
0.0342078,5565.5
0.0344503,5587.42
0.0344686,5614.84
0.0346779,5634.96
0.0351249,5661.54
0.0350845,5683.96
0.0351228,5706.71
0.03518,5734.3
0.0355205,5753.82
0.0356209,5781.61
0.0357977,5802.19
0.0361983,5828.76
0.0360759,5855.41
0.0363184,5876
0.036518,5904.95
0.0367679,5924.03
0.0368849,5949.83
0.0371771,5971.58
0.0371593,5995.06
0.0374997,6018.66
0.037721,6036.55
0.0375956,6061.42
0.0378813,6079.45
0.0378646,6101.74
0.0379527,6118.7
0.0384176,6140.02
0.0382612,6155.38
0.0381802,6171.24
0.0387358,6190.59
0.0386005,6203.7
0.0388972,6222.78
0.0388753,6232.3
0.038818,6253.79
0.0390315,6266.06
0.0393132,6285.71
0.039257,6298.3
0.0393718,6317.31
0.0395581,6331.91
0.0398296,6349.5
0.0397259,6365.4
0.0398723,6381.46
0.0400938,6397.4
0.0402306,6414.35
0.0401564,6432.05
0.0407078,6446.69
0.0405099,6464.42
0.0410264,6481.18
0.0410411,6499.54
0.0410553,6515
0.0412799,6532.82
0.0413167,6547.68
0.0412253,6567.95
0.0414855,6582.67
0.0417995,6603.48
0.0418018,6617.31
0.041747,6639.29
0.0423044,6653.53
0.0421476,6673.35
0.0422701,6687.92
0.0423757,6709.28
0.0428374,6725.89
0.0428497,6744.88
0.0430885,6760.6
0.0432445,6802.45
0.0435126,6813.95
0.0435695,6825.89
0.0438196,6843.44
0.0436977,6861.03
0.0439613,6881.39
0.0440623,6897.57
0.0440393,6915.13
0.044339,6934.83
0.0445868,6953.8
0.0447303,6974.96
0.0448736,6990.31
0.0448473,7011.91
0.0450659,7027.93
0.0451412,7049.49
0.0452875,7065.39
0.0454228,7084.84
0.0456458,7105.43
0.0458276,7125.43
0.0458133,7144.4
0.0460914,7160.87
0.0461101,7184.13
0.0464663,7200.3
0.0465612,7221.53
0.0466145,7239.81
0.0468606,7260.08
0.0468631,7281.67
0.0473715,7299.2
0.0474742,7324.33
0.0474824,7342.92
0.047632,7362.82
0.048099,7382.8
0.0478125,7401.47
0.0481976,7424.95
0.0481996,7440.72
0.0484601,7462.84
0.0485564,7485.55
0.048846,7505.36
0.048872,7527.54
0.0490529,7546.5
0.0495055,7568.24
0.0498586,7589.41
0.0497376,7607.37
0.0500291,7632.67
0.0502555,7650.99
0.0502908,7672.08
0.0503165,7695.48
0.0506754,7713.93
0.0509664,7737.52
0.0512567,7757.84
0.0510838,7776.46
0.0515869,7802.78
0.0514674,7821.96
0.0515542,7842
0.0517685,7867.44
0.052204,7886.86
0.0522751,7909.03
0.0524942,7932.43
0.0526909,7953.43
0.052782,7975.72
0.053022,8000.8
0.0533122,8019.2
0.0537664,8043.72
0.0539464,8065.87
0.0541129,8086.51
0.0540976,8109.85
0.0542154,8132.99
0.054494,8153.14
0.0547147,8177.18
0.0548504,8200.84
0.0554671,8220.37
0.0551707,8245.94
0.0556218,8270.5
0.0557102,8289.45
0.0563818,8312.41
0.0564958,8339.67
0.0564646,8358.56
0.0566633,8381.51
0.0567764,8408.83
0.0573129,8429.2
0.0574322,8452.27
0.0575846,8477.84
0.0579493,8499.72
0.057982,8521.97
0.058177,8547.34
0.0584997,8572.31
0.0587132,8595.36
0.0589815,8617.01
0.0592442,8644.01
0.0592003,8666.61
0.0595988,8691.66
0.059962,8713.28
0.0601153,8739.85
0.0602505,8764.31
0.0604139,8783.91
0.0609622,8812.94
0.0608726,8839.9
0.0613728,8863.36
0.0615447,8885.37
0.0618142,8914.24
0.0624886,8939.94
0.0623966,8960.41
0.0626067,8986.13
0.0628965,9013.1
0.0633933,9039.64
0.0633958,9065.07
0.0635127,9086.78
0.0639276,9112.53
0.0643039,9140.9
0.0644609,9166.25
0.0646214,9190.41
0.0651051,9217.4
0.0654526,9244.92
0.0655463,9272.75
0.0657666,9295.73
0.0663394,9320.87
0.0666059,9347.27
0.0667495,9376.53
0.067098,9402.46
0.0676246,9428.94
0.0675281,9453.4
0.0680531,9481.47
0.0681537,9510.19
0.0684385,9536.82
0.0688622,9560.5
0.0691736,9586.48
0.0697916,9612.91
0.0700618,9642.47
0.0703828,9668.97
0.0704138,9694.13
0.07093,9721.09
0.0711994,9749.54
0.0713486,9776.24
0.0717466,9806.54
0.0721784,9831.13
0.0723585,9858.97
0.0726819,9885.86
0.0731554,9913.33
0.0736308,9943.77
0.0737634,9969.63
0.0742198,9996.97
0.0743949,10023.6
0.0747758,10049.8
0.075146,10078.3
0.0755603,10105.1
0.075845,10135
0.0764644,10163.9
0.0769401,10189.6
0.0772146,10214.6
0.0773967,10242.1
0.0779192,10271.2
0.078503,10300.3
0.0787419,10331
0.0791476,10358.8
0.0795899,10388.5
0.0801674,10414.8
0.0805965,10441.4
0.0809846,10471.5
0.0812797,10499.8
0.0816398,10529.8
0.0822479,10558.1
0.0825212,10588
0.0831609,10616.3
0.0834533,10642.7
0.0838119,10670
0.0842203,10696.5
0.0845849,10726.9
0.0851885,10753.2
0.0854795,10782.5
0.086171,10809.9
0.0866168,10840.8
0.0872261,10869.8
0.0874363,10900.1
0.0881713,10930.5
0.0884797,10959.2
0.0891429,10988.4
0.089533,11017.4
0.0897949,11043.8
0.0904008,11073.7
0.0910084,11104.6
0.0917381,11133.8
0.0920403,11163.2
0.0927604,11191.5
0.0931477,11222.4
0.0938598,11251.3
0.0942254,11281.9
0.094765,11311.4
0.095454,11340.3
0.0961279,11369
0.0967801,11399.7
0.0973226,11429.9
0.0978474,11459
0.0984868,11488.1
0.099097,11517
0.0997633,11544.8
0.100342,11575.3
0.101104,11605
0.101722,11634.8
0.102435,11662.9
0.102899,11691.1
0.103755,11720.5
0.104505,11750.6
0.105222,11779.5
0.105964,11808.8
0.106546,11838.3
0.107427,11866
0.108119,11896.3
0.108958,11923.9
0.109971,11955.1
0.110419,11982.1
0.111312,12011.9
0.112133,12040.8
0.112726,12070.1
0.113505,12098.2
0.114597,12126.3
0.115191,12156.1
0.116406,12184.3
0.116993,12212.9
0.117874,12241.3
0.118796,12269.8
0.119547,12298.9
0.120594,12327.8
0.121675,12354.9
0.122709,12383.7
0.123761,12410.7
0.124905,12439.4
0.125818,12467.4
0.126977,12495.1
0.127545,12521.2
0.129001,12551.1
0.130173,12578.7
0.131359,12605.8
0.132428,12630.5
0.133627,12655.9
0.134868,12680.4
0.136169,12709.2
0.137221,12734
0.138423,12758
0.139594,12784.7
0.141102,12810
0.14245,12838.3
0.143929,12863.6
0.145351,12890
0.146577,12914.6
0.148188,12939.4
0.149377,12964.5
0.151172,12988.7
0.152743,13011.9
0.154389,13035.3
0.156054,13057.9
0.157687,13080.1
0.159415,13103.9
0.160991,13126.8
0.163774,13260.5
0.169661,13382.9
0.176227,13446
0.183086,13507.6
0.19009,13558.5
0.197371,13609.5
0.204945,13656.2
0.212573,13696.5
0.220656,13741.1
0.228848,13781.5
0.237224,13813
0.246325,13848.3
0.255131,13877.9
0.264575,13906.9
0.273944,13931.1
0.283736,13960.2
0.293682,13978.1
0.303854,14000.3
0.314181,14022.2
0.324905,14037.5
0.335524,14057
0.34688,14074.3
0.357898,14083.9
0.369188,14099.6
0.380595,14114.1
0.392148,14124.3
0.403836,14133.1
0.415419,14147.3
0.427437,14154.2
0.439348,14165.5
0.451632,14176.7
0.463388,14182.6
0.475815,14190.9
0.488167,14200.7
0.500489,14206.8
0.512871,14216.6
0.525741,14224.1
0.538547,14228.2
0.551042,14234.5
0.563788,14243.2
0.576865,14249.1
0.58953,14255.1
0.602863,14261.1
0.615714,14264.6
0.628865,14270.1
0.642165,14278
0.6552,14280.2
0.668383,14286.9
0.681963,14290
0.694757,14296.5
0.708124,14300.6
0.721182,14307
0.734983,14310.5
0.748267,14315.1
0.761637,14318.4
0.775282,14321.3
0.788691,14326.7
0.802309,14332.9
0.816277,14336.9
0.829888,14338.2
0.843598,14341
0.857126,14345.6
0.870914,14349.4
0.88459,14352.4
0.898529,14355.9
0.912079,14358.5
0.92598,14362.3
0.939818,14366.4
0.953785,14368.7
0.96731,14371.6
0.981704,14373.8
0.995688,14377.3
1.00947,14380.1
1.02347,14384
1.03764,14387.2
1.05148,14386.9
1.06566,14391.4
1.07976,14391.5
1.0941,14395
1.10787,14399
1.12188,14400.7
1.13632,14401.7
1.15053,14403.7
1.16429,14407.8
1.17866,14410.3
1.19306,14412.5
1.20723,14414.3
1.22118,14414.5
1.23525,14417.5
1.24978,14421.1
1.27059,14423.1
1.29174,14423
1.31298,14424.9
1.33412,14426.3
1.35531,14429.7
1.37646,14432.3
1.39765,14430.7
1.41875,14432.8
1.43999,14435.6
1.46113,14436.2
1.48228,14439.7
1.50347,14440.1
1.52466,14440
1.5458,14442.8
1.56699,14444.5
1.58809,14446.9
1.60928,14448.8
1.63048,14449.9
1.65162,14450.3
1.67276,14452.1
1.694,14453.9
1.71515,14452.8
1.73629,14456.5
1.75748,14457.6
1.77868,14455.8
1.79977,14459.6
1.82101,14461.8
1.84216,14461.3
1.86335,14460.8
1.88454,14463.3
1.90564,14464
1.92678,14463.9
1.94797,14469
1.96916,14465.3
1.99031,14468.5
2.0115,14470.2
2.0326,14470.6
2.05374,14472.5
2.07498,14473.3
2.09613,14472.8
2.11736,14473.6
2.13846,14476.1
2.15961,14474.1
2.18075,14474.7
2.20194,14476.9
2.22309,14474.4
2.24428,14477.9
2.26542,14481
2.28657,14478.1
2.30781,14481.7
2.329,14481.5
2.3501,14481
2.37124,14483.2
2.39243,14485.3
2.41358,14484.5
2.43477,14483.2
2.45596,14486.6
2.47711,14484.8
2.4983,14485.3
2.51949,14488.7
2.54063,14486.3
2.56182,14487.3
2.58302,14488.4
2.60411,14487.9
2.62531,14488.9
2.6465,14491.7
2.6676,14488.5
2.68888,14489
2.70998,14492.7
2.73112,14492.5
2.75231,14492.1
2.77351,14495.7
2.7946,14491.5
2.8158,14493.1
2.83699,14494.7
2.85808,14494.4
2.87932,14496.7
2.90051,14495.5
2.92166,14495.5
2.9428,14493.8
2.964,14497.2
2.98509,14495.3
3.00633,14494.4
3.02752,14495.8
3.04862,14493.7
3.06981,14497.2
3.091,14499.2
3.11215,14498.3
3.13334,14498.1
3.15453,14497.3
3.17558,14499
3.19682,14496.8
3.21797,14499.9
3.23906,14498
3.26035,14496.5
3.28149,14500.5
3.30259,14499.3
3.32378,14500.5
3.34502,14500.1
3.36612,14496.6
3.38731,14496.6
3.4085,14498.6
3.42955,14500.2
3.45084,14500.1
3.47198,14498.3
3.49308,14498.7
3.51427,14499.6
3.53551,14502.6
3.55656,14500.9
3.5778,14500.8
3.59895,14500.9
3.62009,14499.5
3.64128,14501.5
3.66247,14499.8
3.68357,14503.4
3.70481,14500.2
3.72595,14499.1
3.74705,14500.1
3.76829,14499.9
3.78948,14500.3
3.81058,14499.1
3.83182,14498.8
3.85301,14500.1
3.87411,14499.6
3.8953,14502.6
3.91649,14498.4
3.93754,14501.1
3.95878,14500
3.97997,14500.9
4.00112,14501.8
4.02231,14500.2
4.0435,14496.9
4.0646,14501.1
4.08583,14500.3
4.10703,14499.8
4.12812,14498
4.14932,14500.1
4.17055,14495.6
4.19156,14498.7
4.21284,14500.2
4.23403,14497
4.25513,14499.5
4.27632,14497.8
4.29752,14496.9
4.31857,14498.6
4.33981,14499.4
4.36095,14498.1
4.3821,14496.2
4.40329,14496.3
4.42448,14496.2
4.44558,14497.9
4.46681,14497.2
4.48801,14494.2
4.5091,14494.6
4.5303,14493.1
4.55149,14492.9
4.57259,14494.6
4.59382,14495
4.61501,14494.3
4.63616,14492.8
4.65726,14495.9
4.6785,14493.8
4.69959,14493.9
4.72083,14494.2
4.74193,14490.7
4.76307,14492.4
4.78427,14493.1
4.8055,14491.9
4.8266,14491.5
4.84784,14491.5
4.86898,14490
4.89013,14489.4
4.91127,14492.1
4.93247,14488
4.95361,14488.8
4.97485,14489.1
4.99599,14487.7
5.01714,14488.4
5.03833,14489.4
5.05952,14485.2
5.08057,14487.2
5.10181,14488
5.12291,14487.3
5.1441,14485
5.16529,14487.4
5.18648,14483.6
5.20763,14483
5.22882,14484.6
5.24996,14483.3
5.27111,14482.8
5.29235,14483.1
5.31349,14480
5.33459,14480.9
5.35583,14481.6
5.37697,14479.8
5.39821,14479.2
5.41931,14480.7
5.44045,14479.2
5.4616,14477.8
5.48284,14481.2
5.50393,14477.6
5.52513,14477
5.54632,14478.6
5.56746,14474.7
5.58861,14475.6
5.60985,14477.1
5.63099,14474.6
5.65213,14472.2
5.67333,14475.1
5.69447,14473.6
5.71562,14470.9
5.73685,14473.1
5.758,14469.1
5.77914,14470.4
5.80033,14472.4
5.82148,14470.9
5.84258,14468.3
5.86386,14470.4
5.88491,14470
5.90611,14468.3
5.9273,14468.3
5.94844,14468.2
5.96963,14464.3
5.99087,14466.8
6.01197,14466
6.03311,14463.5
6.05435,14465.1
6.07545,14463.2
6.09664,14462.1
6.11788,14462.2
6.13893,14463.3
6.16012,14461.4
6.18131,14462.6
6.20246,14461.3
6.2236,14457.9
6.24484,14460.5
6.26594,14460.5
6.28713,14457.2
6.30832,14457.8
6.32947,14455.2
6.35061,14455.2
6.37185,14457
6.39295,14457.2
6.41414,14453.6
6.43538,14453.4
6.45648,14451.9
6.47762,14450
6.49881,14451.8
6.51996,14451.6
6.54115,14449.4
6.56234,14449.1
6.58348,14449.1
6.60458,14449.7
6.62582,14447.5
6.64692,14447.8
6.66811,14445.5
6.6893,14444.3
6.71045,14445.9
6.73164,14443.5
6.75283,14442.4
6.77397,14443.4
6.79507,14439.5
6.81631,14441.2
6.83746,14441.4
6.8586,14439.1
6.87984,14437.1
6.90094,14438
6.92213,14436.5
6.94332,14436.1
6.96446,14439.3
6.98561,14435.6
7.0068,14433.3
7.02795,14436.9
7.04909,14431.4
7.07033,14432
7.09147,14429.2
7.11262,14429.9
7.13381,14428
7.15495,14431.6
7.1761,14427.6
7.19734,14425.4
7.21848,14427.1
7.23958,14424.3
7.26077,14423.4
7.28192,14425.3
7.30311,14422.8
7.32435,14421.6
7.34549,14421.5
7.36659,14422.4
7.38778,14420.1
7.40892,14419.7
7.43012,14418.7
7.45131,14416
7.47241,14418
7.4936,14417.1
7.51479,14414.5
7.53598,14414.4
7.55712,14410.4
7.57832,14409.6
7.59946,14411.1
7.6206,14410.1
7.6418,14407.3
7.66294,14406.5
7.68409,14407
7.70532,14405.4
7.72647,14406.4
7.74761,14406.3
7.76881,14402.3
7.78995,14403
7.81114,14401
7.83229,14399.2
7.85343,14399.2
7.87462,14397.1
7.89581,14395.9
7.91705,14394.6
7.9381,14397.2
7.95929,14394.1
7.98049,14392.7
8.00163,14392.4
8.02278,14389
8.04397,14391.4
8.06507,14389.5
8.0863,14386.9
8.10749,14387.1
8.12864,14385.7
8.14978,14383.6
8.17098,14384.8
8.19212,14385.4
8.21331,14379.8
8.2345,14379.1
8.25565,14378.9
8.27684,14377.3
8.29798,14378.5
8.31913,14377
8.34037,14373
8.36151,14374.1
8.3827,14371.4
8.4038,14371.4
8.42504,14369.7
8.44618,14369
8.46738,14367.8
8.48857,14366.1
8.50966,14366.6
8.53081,14364.8
8.55205,14365.4
8.57319,14363.7
8.59438,14359.9
8.61553,14359.5
8.63667,14357.6
8.65782,14356.7
8.67906,14355.6
8.7002,14356
8.72139,14354
8.74249,14351.9
8.76368,14350.1
8.78478,14349.3
8.80597,14348.6
8.82712,14349.6
8.84826,14347.2
8.86945,14347
8.89064,14342.8
8.91174,14343.5
8.93298,14339.7
8.95408,14342
8.97522,14339.4
8.99642,14339.2
9.01761,14335.9
9.03875,14335.3
9.05999,14334
9.08109,14334.5
9.10228,14332.5
9.12342,14331
9.14466,14328.8
9.16576,14326.9
9.187,14326.7
9.2081,14325
9.22924,14323.5
9.25048,14320.5
9.27162,14320.7
9.29282,14318.3
9.31396,14318.3
9.3351,14317.3
9.3563,14314.6
9.37749,14313.1
9.39868,14311.6
9.41978,14310.1
9.44102,14308.6
9.46216,14306.8
9.48335,14306.1
9.5045,14304.5
9.52569,14303.8
9.54679,14301.5
9.56802,14299.1
9.58917,14298.1
9.61031,14296.7
9.6315,14297
9.6527,14294.5
9.67379,14295.3
9.69499,14290
9.71618,14289.3
9.73732,14288.1
9.75847,14287.3
9.77966,14284.2
9.8008,14283.4
9.82204,14280.5
9.84319,14279.1
9.86433,14281.2
9.88548,14278
9.90671,14273.6
9.92781,14273.5
9.949,14270.9
9.97015,14268.1
9.99129,14269.2
10.0125,14267.3
10.0337,14264.6
10.0548,14264.8
10.076,14261.9
10.0972,14260.7
10.1183,14258.1
10.1394,14256.6
10.1607,14253.3
10.1818,14253.2
10.203,14252.7
10.2242,14248
10.2453,14249.3
10.2665,14243.4
10.2877,14241.9
10.3088,14242.9
10.33,14240
10.3511,14239.4
10.3723,14235.8
10.3935,14235.8
10.4147,14231.9
10.4358,14232.7
10.4569,14229.8
10.4781,14226.7
10.4993,14225.2
10.5205,14222.2
10.5417,14219.4
10.5628,14219.8
10.584,14215.6
10.6051,14212
10.6264,14211
10.6475,14210.4
10.6687,14206.8
10.6898,14205.4
10.711,14205
10.7322,14199.2
10.7533,14198.9
10.7744,14196
10.7956,14194.2
10.8168,14192.6
10.838,14189.2
10.8592,14186
10.8804,14182.8
10.9015,14183.2
10.9226,14177.5
10.9438,14174.3
10.965,14173.4
10.9862,14169
11.0074,14169.8
11.0285,14167.7
11.0497,14161.5
11.0708,14161.4
11.092,14157.7
11.1131,14156.5
11.1343,14153.3
11.1555,14151.3
11.1767,14146.1
11.1979,14145.9
11.219,14142.5
11.2402,14138.4
11.2614,14137.3
11.2825,14134.3
11.3037,14128.6
11.3249,14127.5
11.346,14124.6
11.3671,14120.8
11.3884,14118.2
11.4095,14114.9
11.4307,14109.1
11.4519,14106.5
11.473,14105
11.4942,14102.2
11.5154,14097.7
11.5365,14095.9
11.5577,14091.3
11.5789,14090.5
11.6,14084.5
11.6212,14082.1
11.6424,14075.2
11.6635,14073.6
11.6847,14071.6
11.7059,14064.6
11.727,14061.7
11.7482,14057.5
11.7695,14053.3
11.7906,14051.2
11.8117,14043.8
11.8329,14041.3
11.8541,14037.1
11.8752,14033.6
11.8964,14028.6
11.9175,14026.2
11.9387,14020.4
11.9599,14017.9
11.981,14013.3
12.0022,14007.5
12.0234,14003.1
12.0445,14000.5
12.0657,13994.3
12.0869,13988.3
12.1081,13983.3
12.1292,13976.2
12.1504,13972.7
12.1715,13968.5
12.1927,13963.4
12.2139,13956.4
12.2351,13951.7
12.2562,13947
12.2774,13939.4
12.2985,13935.6
12.3197,13929.2
12.3409,13923.5
12.362,13919.4
12.3832,13912.4
12.4044,13905.8
12.4256,13899
12.4467,13892.3
12.4679,13885.1
12.489,13880.1
12.5101,13874.5
12.5314,13867.1
12.5526,13859.9
12.5738,13853
12.5949,13844.9
12.616,13839.2
12.6372,13832.1
12.6584,13824.1
12.6796,13815.5
12.7007,13808.8
12.7219,13801.4
12.7431,13793.4
12.7642,13788.5
12.7854,13778.1
12.8065,13768.1
12.8277,13761.5
12.8489,13754.6
12.8701,13743.3
12.8912,13735.9
12.9124,13727.2
12.9336,13717
12.9547,13709.6
12.9759,13700.7
12.9971,13688.8
13.0183,13682.5
13.0394,13670.2
13.0606,13661.6
13.0817,13653.3
13.1029,13643.3
13.1241,13630.8
13.1453,13621.8
13.1664,13613.1
13.1876,13600
13.2087,13592.4
13.2299,13579.8
13.2511,13565.4
13.2722,13558.3
13.2934,13545.4
13.3146,13534.4
13.3358,13525.8
13.357,13511.2
13.378,13499.1
13.3992,13487.8
13.4204,13476.4
13.4416,13461.5
13.4628,13452.6
13.484,13438
13.5051,13424.3
13.5262,13414.4
13.5474,13401.1
13.5686,13384.6
13.5898,13373.1
13.611,13361.8
13.6321,13346
13.6533,13332.1
13.6744,13319.2
13.6956,13302.8
13.7168,13290.4
13.738,13277.3
13.7591,13259.7
13.7803,13247.5
13.8015,13231.3
13.8226,13214.1
13.8438,13201.6
13.865,13187.7
13.8861,13170
13.9074,13153.8
13.9285,13139.1
13.9497,13118.8
13.9708,13104.6
13.992,13090.3
14.0131,13070
14.0344,13053.7
14.0555,13037.9
14.0767,13017.3
14.0979,13002.7
14.119,12983.2
14.1401,12963.6
14.1614,12946.4
14.1825,12931.2
14.2036,12909.1
14.2249,12892
14.2461,12874.6
14.2672,12851
14.2884,12834
14.3095,12816.7
14.3307,12793.1
14.3519,12775.1
14.3731,12753.7
14.3942,12730.9
14.4154,12708.2
14.4365,12692
14.4577,12667.4
14.4789,12643.9
14.5001,12624.8
14.5212,12599.5
14.5424,12578.8
14.5636,12558.1
14.5847,12531.7
14.6059,12508.8
14.6271,12485.7
14.6481,12460.2
14.6695,12437.2
14.6906,12412.8
14.7117,12385.7
14.7329,12359.4
14.7541,12335.2
14.7752,12307
14.7964,12281.1
14.8176,12257
14.8388,12225.3
14.86,12199.7
14.8811,12172.8
14.9022,12143.5
14.9235,12113
14.9447,12086.7
14.9658,12054
14.987,12025.8
15.0082,11996.3
15.0293,11964.3
15.0505,11932.1
15.0717,11902.9
15.0928,11865.4
15.114,11835.5
15.1353,11802
15.1563,11766.6
15.1776,11730.4
15.1987,11697.8
15.2198,11663.1
15.2411,11626.6
15.2623,11590.5
15.2834,11550.4
15.3046,11511.9
15.3257,11476.1
15.3469,11434
15.3681,11395.3
15.3893,11354.7
15.4104,11310.3
15.4316,11269.7
15.4528,11228.2
15.4739,11182.9
15.4951,11135.3
15.5163,11090.8
15.5374,11041.6
15.5587,10994
15.5798,10948.5
15.6009,10894.6
15.6221,10844.4
15.6434,10792.7
15.6644,10740.2
15.6857,10683.2
15.7069,10627.3
15.728,10568.3
15.7492,10507.3
15.7703,10448.6
15.7914,10385.9
15.8127,10320.1
15.8339,10254.7
15.855,10183.5
15.8762,10113.3
15.8974,10039.5
15.9185,9963.2
15.9398,9884.35
15.9609,9802.93
15.9821,9716.8
16.0034,9627.45
16.0245,9534.29
16.0456,9407.02
16.0669,8796.18
16.0745,4981.01