File: data/PrimaryData/Steel_1018/Tensile_002.csv
Displacement (mm),Load (N)
0.000736616,-31.6536
0.000421047,-32.5987
0.00034267,-31.8263
0.000733848,-32.2287
0.000821379,-30.1518
0.000691446,-31.2005
0.000465184,-31.7763
0.000442657,-30.2009
0.000443783,-31.5053
0.000666077,-29.4681
0.000589147,-28.477
0.00064229,-28.7697
0.000365623,-27.5467
0.000581867,-25.622
0.000332039,-24.596
0.000409709,-22.004
0.00044421,-20.1588
0.000638868,-18.3296
0.000518167,-16.9658
0.000459951,-15.1489
0.000495417,-12.6346
0.00071936,-11.3999
0.00062211,-8.90728
0.000512373,-4.92178
0.000809421,-2.41119
0.000525294,0.174052
0.000848379,2.56466
0.00065927,6.93911
0.000843303,10.1556
0.000912663,12.8243
0.000720055,15.7244
0.000711944,21.3813
0.000962613,25.7364
0.000895147,30.4478
0.000752379,35.0827
0.00078589,40.926
0.000972166,46.9169
0.00105058,52.6804
0.00104153,58.6946
0.000963374,65.5934
0.00100194,71.7601
0.00106758,80.0684
0.000995329,85.7819
0.00106318,92.6553
0.00137702,101.218
0.00117564,108.95
0.00132126,118.594
0.00138576,126.56
0.00139889,137.08
0.00169801,146.872
0.00168089,156.841
0.00172409,166.691
0.00178586,176.726
0.00201527,187.175
0.00184502,197.876
0.0018343,206.436
0.00196174,217.506
0.0018959,226.331
0.00172071,236.071
0.00212433,244.91
0.00193137,257.26
0.00219654,266.868
0.00220176,276.017
0.00227481,287.292
0.00241097,298.889
0.00253521,310.907
0.00238633,322.37
0.00245531,332.882
0.00253967,343.982
0.00261289,353.323
0.00260604,361.506
0.00265266,371.493
0.00263525,377.843
0.00259164,386.314
0.00265348,388.879
0.002979,392.224
0.00271605,394.546
0.00278077,394.877
0.00285031,396.873
0.00283184,398.24
0.00293755,399.182
0.00302638,398.987
0.00275037,398.526
0.00306971,400.841
0.00292931,402.14
0.00279539,405.72
0.0030004,408.554
0.00323903,413.277
0.00276936,416.645
0.00316672,425.463
0.00305715,432.893
0.00291659,439.044
0.00332646,445.692
0.00305055,450.348
0.00334084,455.098
0.00308031,458.772
0.00321013,465.529
0.00314908,471.431
0.00356017,478.318
0.00335593,486.042
0.00357172,494.26
0.00344896,500.002
0.00358061,505.748
0.00348141,510.372
0.00341954,516.011
0.00348961,523.388
0.0037438,531.222
0.00355135,539.056
0.00372743,548.14
0.00376493,556.228
0.00380747,563.267
0.00379231,568.929
0.00373319,574.171
0.00383072,579.874
0.00398787,588.509
0.00391302,596.48
0.00398116,606.261
0.00368326,611.736
0.00404857,618.363
0.00439639,623.584
0.00431278,627.937
0.00415062,631.214
0.0041857,636.005
0.00425641,639.605
0.0042536,641.16
0.00415384,637.931
0.004254,637.88
0.00405844,639.418
0.00463222,645.957
0.00443549,652.432
0.00445033,660.099
0.0044414,664.471
0.00443397,668.836
0.00439322,674.205
0.0045686,681.95
0.00464703,691.415
0.00468296,701.16
0.00467289,706.19
0.00461717,709.942
0.00467965,715.719
0.00467754,722.934
0.00456106,732.231
0.00485782,740.331
0.00468345,746.119
0.00481315,750.243
0.00472584,756.735
0.00483454,765.14
0.0048225,773.915
0.00492407,781.501
0.00506486,786.582
0.00511939,793.815
0.005021,800.362
0.00499384,810.175
0.00518792,819.089
0.00533373,823.825
0.00510269,830.487
0.00535059,837.685
0.00533114,846.624
0.00533288,857.484
0.00551878,863.567
0.0053443,870.657
0.00553411,876.212
0.00575108,887.285
0.005555,897.23
0.00557128,902.447
0.00543366,906.858
0.00548383,916.637
0.00567528,928.769
0.00566643,936.654
0.0057009,942.626
0.00595026,950.219
0.0060495,961.369
0.00605866,973.318
0.00613591,980.302
0.00598356,985.768
0.00605054,995.043
0.00625027,1008.08
0.00593865,1015.98
0.006245,1022.67
0.00635308,1030.64
0.00638885,1043.48
0.00646718,1054.38
0.00652382,1062.15
0.00661032,1070.08
0.00653193,1079.44
0.00633339,1092.84
0.00674262,1100.87
0.00657985,1107.31
0.00672197,1117.5
0.00693181,1131.82
0.00662598,1139.82
0.00698713,1147.63
0.00685855,1158.75
0.00710793,1175.33
0.00709109,1182.2
0.00712357,1189.71
0.00721869,1198.52
0.00705337,1213.49
0.00726351,1222.27
0.0073794,1230.48
0.00748717,1243
0.00758714,1257.6
0.0075603,1263.66
0.00733719,1273
0.0075793,1286.68
0.0076188,1297.31
0.00782592,1305.69
0.00764943,1318.35
0.00786823,1332.85
0.00794493,1343.46
0.00792436,1351.24
0.00817552,1366.04
0.00802694,1376.16
0.00821144,1385.74
0.0083083,1399.55
0.00826558,1414.65
0.00855708,1423.69
0.00846136,1433.51
0.00855729,1449.38
0.00854735,1459.4
0.00851595,1467.93
0.00863519,1482.73
0.0087966,1497.47
0.00890215,1504.54
0.00899284,1518.62
0.009024,1534.74
0.0091439,1543.77
0.00911667,1555.64
0.00938795,1572.78
0.00936893,1583.33
0.00941162,1595.02
0.00940465,1612.2
0.00960019,1623.02
0.00965683,1633.36
0.00964764,1652.49
0.00959817,1664.17
0.00983147,1674.3
0.00995816,1691.72
0.0100804,1704.08
0.00992109,1713.94
0.0101002,1731.99
0.0100641,1745.92
0.0100713,1758.27
0.0101914,1776.17
0.0102356,1787.9
0.0103855,1799.98
0.0105935,1819.8
0.0106461,1831.94
0.0105406,1844.97
0.0106793,1863.02
0.0107514,1874.03
0.0109151,1890.8
0.0112685,1905.9
0.0111024,1916.32
0.0110268,1933.61
0.0110433,1950.33
0.0111528,1963.54
0.0114965,1982.12
0.0114667,1996.38
0.0116151,2009.07
0.0117485,2029.65
0.0116266,2040.35
0.0119417,2059.13
0.0119543,2075.91
0.0121218,2087.22
0.0123,2106.44
0.0124306,2119.74
0.0123652,2136.99
0.0126336,2155.44
0.0123821,2167.14
0.0125683,2186.24
0.0126651,2201.7
0.0128675,2217.66
0.0129508,2239.69
0.0130019,2250.29
0.0131984,2270.45
0.0133246,2286.19
0.0133397,2302.05
0.0132092,2322.69
0.0135266,2336.6
0.0137648,2356.4
0.0139233,2368.55
0.0137802,2387.98
0.0138624,2405.22
0.0140292,2420.99
0.0143122,2444.76
0.0144817,2456.17
0.0143305,2477.33
0.0146399,2494.08
0.0145648,2511.6
0.0147042,2530.51
0.0149165,2543.88
0.0149182,2566.92
0.0151528,2581.2
0.0149585,2603.45
0.0152762,2618.26
0.0152361,2638.8
0.0152685,2654.86
0.0155511,2672.12
0.0154974,2693.43
0.0156301,2709.4
0.0160517,2732.62
0.0158468,2744.67
0.0162725,2768.75
0.0163177,2783.21
0.0166316,2808.03
0.0164722,2824.65
0.0167592,2844.98
0.0168806,2862.12
0.0170234,2881.85
0.0170618,2902.69
0.0173575,2922.24
0.01762,2940.5
0.0173806,2958.53
0.0176026,2981.5
0.0175715,2999.84
0.0179362,3022.38
0.017686,3039.36
0.0180439,3064.04
0.0180715,3079.29
0.0184171,3104.55
0.018453,3121.49
0.0184691,3145.7
0.0187129,3160.82
0.0189745,3187.65
0.0189039,3204.35
0.0192182,3228.67
0.0192898,3248.02
0.0194319,3272.71
0.0196368,3289.52
0.0198651,3315.11
0.0198585,3333.63
0.0203352,3357.95
0.0203069,3377.13
0.0206707,3423.34
0.0206773,3440.98
0.0208602,3456.49
0.0207177,3477.28
0.0208929,3496.35
0.0213673,3521.71
0.0212355,3540.93
0.0215285,3563.14
0.0216529,3583.25
0.0219192,3607.34
0.0218792,3631.23
0.0220139,3652
0.0221922,3676.71
0.0223569,3695.87
0.0225623,3722.91
0.0228279,3741.21
0.0230835,3765.66
0.0231952,3787.9
0.0233961,3813.19
0.0234076,3836.32
0.0235044,3857.96
0.0239694,3884.79
0.0239317,3905.99
0.0240755,3931.62
0.0242045,3952.64
0.0243716,3977.24
0.0245619,4002.39
0.0246395,4023.08
0.0250991,4051.17
0.0252099,4074.59
0.0254841,4101.35
0.0255358,4123.89
0.0258705,4148.04
0.0259624,4174.48
0.0262032,4195.24
0.0264977,4222.99
0.0266788,4247.13
0.0266727,4271.73
0.0270131,4299.37
0.027192,4320.32
0.0275669,4349.42
0.0278145,4374.33
0.0278061,4396.44
0.027997,4425.29
0.0279515,4448.97
0.0284765,4475.82
0.028608,4501.99
0.0287722,4525.49
0.0289645,4555.37
0.0291486,4579.4
0.029379,4603.68
0.0297778,4635.62
0.0296162,4660.18
0.0302128,4687.39
0.0304226,4717.7
0.0305442,4740.74
0.030729,4768.18
0.0310165,4798.91
0.0309934,4823.06
0.0312752,4851.76
0.0315033,4880.13
0.0318257,4906.85
0.0319532,4935.08
0.0320865,4958.95
0.0326113,4985.83
0.0327156,5015.08
0.032916,5042.33
0.0332743,5068.14
0.0337322,5098.77
0.0338794,5126.66
0.0337713,5151.08
0.033891,5178.94
0.0344152,5208.71
0.0347312,5232.56
0.0349777,5264.82
0.0351091,5296.38
0.0354334,5320.76
0.0358113,5349.3
0.0357715,5381.76
0.0360966,5406.33
0.0363603,5433.71
0.0366144,5467.09
0.0367657,5496.26
0.0371667,5523.85
0.0373119,5555.56
0.0375721,5583.42
0.0381619,5610.35
0.0383977,5640.3
0.0385442,5671.32
0.0388234,5700.5
0.0388785,5729.5
0.0391586,5760.29
0.0395586,5791.69
0.0398538,5819.39
0.0399387,5844.95
0.0404779,5879.84
0.0408511,5913.58
0.0410072,5942.35
0.0411518,5973.42
0.0416852,6007.51
0.0419365,6039.32
0.0422174,6065.27
0.0425668,6098.99
0.0429741,6130.9
0.0431966,6163.42
0.0432801,6192.69
0.0437358,6224.44
0.0441175,6256.33
0.0443538,6290.06
0.0446957,6317.38
0.0451022,6345.78
0.0455953,6379.11
0.0456055,6411.08
0.0459594,6442.25
0.046282,6470.97
0.0464998,6502.51
0.0468748,6535.72
0.0473043,6569.75
0.0476949,6598.31
0.0480394,6630.26
0.0483031,6660.71
0.0488778,6696.04
0.0488441,6730.95
0.0494503,6760.78
0.0498467,6789.37
0.0500103,6824.96
0.0504917,6858.44
0.0508088,6891.59
0.0511623,6924.23
0.0515629,6954.99
0.0520206,6989.32
0.0523373,7023.03
0.0526595,7055.94
0.0532022,7089.39
0.0534596,7120.39
0.0537019,7153.46
0.0543279,7186.93
0.0544744,7218.18
0.0550953,7253.46
0.0555776,7284.59
0.0559364,7315.32
0.0562673,7348.31
0.0567584,7381.48
0.0571116,7416.78
0.0573865,7450.64
0.0579863,7481.74
0.0583785,7515.75
0.0588411,7549.54
0.0591949,7583.75
0.0596465,7617.76
0.0600746,7651.4
0.0606123,7686.86
0.0612734,7722.42
0.0616773,7754.03
0.0621221,7786.53
0.0625891,7818.13
0.0632734,7850.95
0.0636222,7885.19
0.0638347,7919.38
0.064454,7955.76
0.0650656,7991.58
0.0658018,8026.74
0.0661537,8059.4
0.0668345,8090.45
0.0672271,8125.18
0.0676154,8158.19
0.0680431,8193.74
0.0687689,8227.8
0.0691691,8262.9
0.0698179,8298.1
0.0702898,8331.85
0.0709701,8365.5
0.0715935,8399.81
0.0721557,8432.55
0.0728089,8465.59
0.0734932,8497.88
0.0739719,8532.72
0.0748126,8564.8
0.0751736,8597.59
0.0755532,8632.67
0.0761545,8666.79
0.0770432,8703.65
0.0777023,8734.24
0.0783162,8767.94
0.0791006,8802.17
0.0795843,8836.74
0.0803743,8872.62
0.081058,8904.51
0.0815987,8935.6
0.0826449,8967.95
0.0833133,9005.11
0.0838992,9036.5
0.08458,9069.94
0.0855129,9104.06
0.0861353,9135.22
0.0867607,9169.28
0.087826,9200.85
0.0884232,9234.91
0.0893127,9268.88
0.0900497,9300.4
0.0907249,9332.76
0.0916214,9364.58
0.0924388,9399.99
0.0932097,9432.84
0.0942313,9465.5
0.0951912,9497.63
0.0959952,9531.8
0.0969695,9562.85
0.0978361,9596.42
0.0985453,9629.48
0.0995509,9660.38
0.100792,9692.85
0.101706,9723.91
0.102414,9755.83
0.103637,9787.07
0.104921,9819.3
0.105871,9850.02
0.106707,9879.23
0.10805,9910.5
0.109121,9940.99
0.110111,9972.77
0.111174,10003.1
0.112267,10034.1
0.11338,10063.4
0.114576,10093.3
0.115768,10123.3
0.116941,10156.7
0.118087,10184.7
0.119505,10215
0.120575,10242
0.121911,10273.8
0.123208,10302.1
0.124626,10333.6
0.125851,10361.1
0.127463,10388.9
0.128797,10418.4
0.130038,10449.4
0.131754,10477.6
0.133022,10502.5
0.134302,10531.1
0.135917,10558
0.137309,10586.5
0.139117,10612.7
0.140717,10639.1
0.142174,10665
0.143701,10692.2
0.145362,10717.125
0.146722,10745.5
0.148792,10770.7
0.150305,10798.1
0.152112,10825
0.153905,10850
0.155777,10877
0.157301,10903.4
0.159067,10928.7
0.161219,10952.4
0.162934,10976.7
0.165088,11000.4
0.166924,11025.4
0.168882,11049
0.170834,11071.9
0.172718,11096
0.174889,11119.8
0.177193,11144.4
0.179078,11168.5
0.181022,11190.6
0.182676,11205.5
0.189193,11435.6
0.197366,11508.5
0.205667,11575.2
0.213811,11639.4
0.222348,11697.2
0.230606,11758.2
0.238764,11813.6
0.247538,11872.8
0.256006,11929.1
0.264923,11981.2
0.273556,12033.6
0.282461,12084.375
0.291368,12134.1
0.300471,12183.7
0.309714,12230.8
0.318927,12275.8
0.328377,12321.2
0.338218,12368.6
0.347344,12411
0.356957,12455
0.366501,12496.2
0.376344,12534.1
0.385805,12576.7
0.395724,12618.8
0.405649,12657
0.415727,12696.1
0.425309,12733.1
0.43538,12770.8
0.445283,12810.2
0.45553,12849.7
0.465592,12883.3
0.475733,12919.5
0.485968,12957.6
0.496232,12991
0.506636,13026.8
0.516965,13063.8
0.527384,13095.3
0.537854,13131
0.547907,13164.3
0.558189,13195.7
0.56865,13228.5
0.579121,13264
0.589405,13292.2
0.599786,13325.3
0.610053,13360.7
0.620761,13389.2
0.631523,13423.1
0.641907,13453.4
0.652209,13482.4
0.66252,13514.2
0.673074,13545.4
0.683757,13573.2
0.694436,13602.3
0.70512,13634.1
0.71534,13659.1
0.72589,13689.7
0.736448,13721.5
0.746956,13746.3
0.75758,13774
0.768049,13802.8
0.778682,13828.4
0.789095,13856
0.79982,13886.7
0.810348,13910.7
0.820865,13936.6
0.831477,13967.8
0.842078,13992.7
0.852922,14018.3
0.86392,14048.4
0.874263,14069.5
0.884954,14096.6
0.895876,14124.2
0.906371,14146.7
0.917155,14172
0.927846,14199.5
0.938611,14221.7
0.94905,14243.3
0.959717,14271.8
0.970757,14294.5
0.981628,14317.5
0.99191,14343.7
1.00321,14365.1
1.01358,14390.3
1.02471,14416.3
1.03535,14439.4
1.04614,14457.8
1.05713,14482.8
1.0679,14507.7
1.07881,14527.4
1.0896,14553.7
1.10045,14574.1
1.11158,14594.5
1.12236,14618.5
1.13322,14639.5
1.14413,14660.1
1.15489,14684.1
1.16599,14705.1
1.17686,14724.3
1.1877,14744.5
1.19891,14767.7
1.20975,14789.9
1.22058,14811.8
1.23187,14832.2
1.24311,14850
1.25719,14872.8
1.27829,14893.3
1.29948,14912.2
1.32068,14930.6
1.34182,14951.2
1.36296,14970.4
1.3842,14988.7
1.4053,15011.8
1.42649,15027.9
1.44773,15048.2
1.46883,15067.8
1.48997,15085.5
1.51116,15105
1.53226,15123.1
1.55345,15140.8
1.57465,15158.7
1.59579,15178.8
1.61689,15197.5
1.63817,15213.7
1.65927,15232.2
1.68046,15248
1.70165,15266.5
1.7228,15286.2
1.74394,15302.2
1.76518,15318.1
1.78628,15337.8
1.80743,15353
1.82862,15370.5
1.84976,15387.9
1.87091,15402.4
1.89214,15417
1.91324,15435
1.93439,15452.1
1.95558,15469.2
1.97677,15490.1
1.99792,15502.5
2.01915,15516.8
2.04025,15534.6
2.0614,15549.4
2.08259,15564.7
2.10378,15579.6
2.12492,15596.4
2.14612,15608.8
2.16726,15627.8
2.1884,15641.8
2.20964,15654.9
2.23074,15670.9
2.25193,15683.9
2.27308,15698.5
2.29422,15718.5
2.31541,15728.3
2.33656,15742.9
2.3578,15759.7
2.37885,15775.4
2.40004,15786.8
2.42118,15802.6
2.44237,15816.2
2.46357,15828.6
2.48471,15843.9
2.5059,15856.6
2.52705,15868.7
2.54824,15886.4
2.56938,15898.1
2.59057,15909.1
2.61172,15922
2.63286,15937.1
2.65406,15948.4
2.67525,15963.8
2.69639,15975.9
2.71754,15985.2
2.73868,16005.4
2.75983,16017.9
2.78102,16027.2
2.80216,16041.9
2.82335,16052
2.8445,16064.8
2.86569,16077.6
2.88684,16091.1
2.90803,16099.9
2.92926,16113.4
2.95032,16127.3
2.97155,16137.8
2.9927,16149
3.01384,16163.2
3.03504,16170.7
3.05623,16182.4
3.07732,16195.5
3.09847,16206
3.11971,16219.7
3.14085,16232.5
3.162,16240.1
3.18314,16252.9
3.20429,16266.1
3.22548,16274.2
3.24667,16285.3
3.26781,16296.4
3.28896,16304.9
3.3102,16318.4
3.3313,16329.3
3.35249,16338.8
3.37368,16348.3
3.39487,16359.4
3.41592,16369
3.43721,16379.2
3.4583,16391.4
3.47945,16399.4
3.50069,16410.6
3.52183,16422.7
3.54293,16431.6
3.56412,16442.1
3.58531,16451.2
3.60646,16461.1
3.62765,16469.9
3.64879,16481.1
3.66989,16491.6
3.69118,16499.3
3.71232,16510.9
3.73347,16518.9
3.75461,16528.2
3.7758,16539.4
3.7969,16547.5
3.81814,16556.1
3.83928,16563.8
3.86043,16575.2
3.88162,16585.4
3.90281,16593.8
3.92391,16605.1
3.94515,16610.1
3.96625,16619.1
3.98739,16630.3
4.00853,16637.5
4.02973,16647.4
4.05087,16655.1
4.07216,16663.5
4.09325,16670.6
4.1144,16681.5
4.13554,16688.9
4.15683,16696.1
4.17793,16705.5
4.19916,16711.5
4.22022,16720.9
4.24136,16730.9
4.26255,16738.6
4.28379,16746.6
4.30494,16756.4
4.32608,16763.7
4.34727,16770.7
4.36842,16779.8
4.38961,16786.1
4.4108,16790.6
4.4319,16802.6
4.45314,16809.7
4.47428,16816.3
4.49547,16827
4.51662,16830.9
4.53781,16837.4
4.55886,16846.5
4.5801,16853.5
4.60124,16862.1
4.62243,16868.9
4.64358,16876.3
4.66477,16880.5
4.68591,16892.6
4.70711,16897.7
4.72825,16903
4.74944,16912.5
4.77059,16916.3
4.79173,16923.6
4.81288,16933.8
4.83411,16940.6
4.85526,16942.5
4.87645,16951.1
4.89755,16958.2
4.91879,16962.8
4.93988,16970
4.96112,16977.9
4.98222,16981.8
5.00337,16990.9
5.02451,16998.2
5.04575,17002.5
5.06689,17012.1
5.08808,17016.3
5.10923,17020.7
5.13042,17028.6
5.15152,17034.7
5.17276,17037.9
5.19386,17046
5.21509,17052.5
5.23619,17055.2
5.25743,17066.2
5.27857,17070
5.29977,17073.7
5.32086,17082
5.34206,17088.3
5.36315,17092.6
5.38439,17100.6
5.40549,17105.7
5.42673,17109.1
5.44787,17117.7
5.46902,17123.7
5.49021,17124.1
5.5114,17133.5
5.5325,17135.9
5.55369,17140.9
5.57483,17148.2
5.59603,17154.3
5.61717,17156.3
5.63841,17164.1
5.65951,17169.4
5.68075,17171.4
5.70184,17178.8
5.72308,17186.3
5.74423,17186.8
5.76542,17193
5.78652,17198.1
5.80766,17202.7
5.8289,17211.3
5.85004,17216.2
5.87123,17218.7
5.89243,17222.1
5.91352,17228.4
5.93467,17231.4
5.95586,17237.7
5.97705,17245.2
5.9982,17243.1
6.01943,17252.6
6.04053,17258.7
6.06177,17260.8
6.08287,17262.8
6.10411,17268.9
6.12521,17272.9
6.1464,17278.1
6.1675,17284.1
6.18869,17286
6.20988,17290.8
6.23102,17297.375
6.25217,17299.5
6.27336,17305.3
6.2945,17309.1
6.31565,17311.7
6.33689,17317.25
6.35803,17321.2
6.37913,17323.7
6.40041,17330.5
6.42151,17334.2
6.4427,17337.6
6.4639,17339.5
6.48504,17346.2
6.50614,17347.6
6.52733,17351.25
6.54847,17357.3
6.56967,17359
6.59086,17365.7
6.612,17369.2
6.63315,17373.3
6.65438,17376
6.67548,17377.7
6.69663,17383.9
6.71787,17385.9
6.73901,17390.5
6.76016,17393.1
6.78139,17395.3
6.80254,17399.6
6.82368,17403.4
6.84483,17408
6.86602,17410.8
6.88712,17415.3
6.90836,17414.8
6.9295,17419.6
6.9506,17423.6
6.97188,17427.9
6.99298,17430.8
7.01417,17436.1
7.03532,17436.9
7.05651,17439.8
7.07765,17443.9
7.09884,17446.8
7.11999,17446.6
7.14114,17452.3
7.16237,17455.8
7.18347,17457.5
7.20466,17463.6
7.22585,17465.2
7.247,17465.1
7.26814,17470.9
7.28933,17471.4
7.31043,17476.4
7.33162,17478.3
7.35286,17483
7.37396,17482.3
7.39515,17490.7
7.4163,17491.2
7.43754,17492.2
7.45863,17494.7
7.47987,17498.3
7.50092,17497
7.52211,17504.6
7.54335,17506.2
7.5645,17506.8
7.58569,17510.6
7.60683,17513.125
7.62798,17513.9
7.64912,17519.7
7.67031,17522.2
7.69146,17521
7.7126,17526.4
7.73384,17529.1
7.75494,17527.5
7.77618,17536.4
7.79732,17536.8
7.81847,17536.6
7.83961,17540.6
7.8608,17543
7.8819,17542.2
7.90314,17546
7.92433,17548.4
7.94548,17547.3
7.96662,17553.6
7.98781,17557.5
8.00896,17555
8.03015,17559.5
8.05134,17562.2
8.07244,17562.8
8.09363,17567.2
8.11487,17569.7
8.13597,17566.7
8.15716,17571.6
8.17826,17575.3
8.19945,17573.5
8.22059,17578.1
8.24183,17581.2
8.26297,17578.2
8.28412,17582.6
8.30531,17583.6
8.32645,17585.8
8.34769,17588.8
8.36884,17590.4
8.38994,17588.4
8.41117,17594.4
8.43232,17596.4
8.45346,17593.9
8.47461,17597.8
8.4958,17601.1
8.5169,17598.5
8.53818,17605.6
8.55933,17607.3
8.58047,17604.9
8.60166,17607.6
8.62281,17611.4
8.64386,17608.6
8.66514,17610.6
8.68634,17617
8.70743,17611.4
8.72867,17617.8
8.74982,17620.7
8.77096,17617.5
8.7922,17621.1
8.81334,17622.7
8.83444,17622.3
8.85563,17624.9
8.87683,17627.7
8.89788,17627
8.91921,17628.1
8.94031,17631.7
8.96145,17629.6
8.9826,17632.1
9.00383,17636.4
9.02489,17632.3
9.04617,17636.8
9.06732,17638.9
9.08841,17637.5
9.10965,17638.5
9.13084,17642.8
9.15189,17640
9.17318,17641.8
9.19432,17646.2
9.21542,17643.7
9.23666,17646.5
9.25785,17650.4
9.2789,17646.1
9.30019,17649.3
9.32129,17651.6
9.34243,17650.2
9.36362,17652.7
9.38486,17654.6
9.40591,17653.7
9.42715,17653.2
9.44829,17655.9
9.46939,17654.4
9.49068,17658.2
9.51187,17660.6
9.53292,17657.3
9.55416,17660.2
9.5753,17661.3
9.5964,17662.3
9.61759,17661.5
9.63883,17663.2
9.65984,17662.8
9.68121,17664.8
9.70231,17667.1
9.7235,17664.3
9.74465,17664.6
9.76589,17667.4
9.78689,17664.9
9.80818,17668.3
9.82927,17669
9.85042,17668.5
9.87166,17668.8
9.89285,17669.8
9.9139,17670.3
9.93518,17669.7
9.95633,17672.1
9.97743,17671.7
9.99867,17672.1
10.0198,17674.9
10.0409,17672.2
10.0622,17673.9
10.0833,17674.8
10.1045,17674
10.1256,17674.5
10.1469,17676.1
10.1679,17675
10.1892,17674.1
10.2103,17674.6
10.2314,17676.6
10.2527,17676.2
10.2739,17678.1
10.295,17676.1
10.3162,17677.4
10.3373,17677.4
10.3584,17678
10.3796,17680.1
10.4008,17677.8
10.4219,17678.8
10.4432,17680.1
10.4643,17677.9
10.4855,17679.8
10.5067,17677.9
10.5279,17678.2
10.5489,17678.2
10.5701,17678.8
10.5912,17677.4
10.6124,17680
10.6336,17678.9
10.6548,17676.9
10.6759,17679.5
10.6971,17681
10.7183,17678.7
10.7394,17681.1
10.7606,17678.4
10.7818,17679.4
10.8029,17678.5
10.8241,17680
10.8452,17678.3
10.8664,17680.6
10.8876,17680.6
10.9088,17678.4
10.9299,17678.4
10.9512,17677.7
10.9723,17675.4
10.9934,17677.2
11.0146,17678.7
11.0358,17675.9
11.057,17676.6
11.0782,17678.6
11.0993,17674.9
11.1205,17675.1
11.1416,17677.7
11.1627,17674.3
11.1839,17674.4
11.2051,17677.3
11.2263,17673.1
11.2475,17675.3
11.2686,17674
11.2898,17671.9
11.3109,17671
11.3322,17671.5
11.3533,17669.4
11.3745,17669.2
11.3957,17671.5
11.4168,17667.2
11.438,17669.4
11.4591,17671.1
11.4803,17667.3
11.5014,17668.125
11.5227,17669.875
11.5438,17665.6
11.565,17666.8
11.5862,17666.8
11.6073,17664.9
11.6285,17665.3
11.6496,17666.3
11.6708,17662.1
11.692,17661.2
11.7131,17661.4
11.7343,17657.2
11.7555,17658.4
11.7767,17659.7
11.7978,17654.3
11.819,17656.9
11.8402,17658.7
11.8613,17656.4
11.8825,17652.8
11.9037,17653.8
11.9248,17651.7
11.9459,17652.2
11.9671,17652.3
11.9883,17648.7
12.0095,17647.6
12.0307,17647.4
12.0518,17643.7
12.073,17644.7
12.0942,17644.2
12.1153,17640.9
12.1365,17639.3
12.1577,17640
12.1788,17637.8
12.2001,17636.6
12.2212,17637.5
12.2423,17634.1
12.2634,17634
12.2847,17635.2
12.3058,17631.7
12.327,17631.4
12.3482,17628.4
12.3692,17627.5
12.3905,17626.9
12.4116,17628.1
12.4328,17624.6
12.454,17620.8
12.4752,17620.8
12.4963,17617.8
12.5175,17616
12.5387,17618.8
12.5598,17613.1
12.5811,17614
12.6022,17611
12.6233,17611
12.6445,17608.3
12.6657,17608
12.6868,17604.7
12.708,17602.4
12.7291,17602.8
12.7503,17601.2
12.7715,17599.1
12.7927,17598.8
12.8138,17593.125
12.835,17593.1
12.8562,17590.5
12.8772,17588.1
12.8985,17585.5
12.9197,17583.3
12.9408,17582.125
12.9621,17580
12.9832,17579
13.0043,17577.4
13.0255,17574.3
13.0467,17573.5
13.0678,17569.9
13.089,17567
13.1102,17564.6
13.1313,17562.8
13.1525,17561
13.1737,17558
13.1948,17557.3
13.216,17552.8
13.2372,17551.1
13.2583,17547.7
13.2795,17544
13.3007,17542.1
13.3218,17538.8
13.343,17538.1
13.3642,17534.8
13.3853,17533
13.4064,17530.3
13.4277,17526.4
13.4487,17524.1
13.47,17520.2
13.4911,17515.5
13.5122,17513.375
13.5335,17511.3
13.5547,17506.3
13.5758,17504.6
13.597,17501.4
13.6182,17496.4
13.6393,17494.2
13.6605,17490.4
13.6817,17483.4
13.7028,17480.3
13.7241,17477.9
13.7452,17473.2
13.7663,17473
13.7875,17466.3
13.8087,17461.7
13.8298,17456.2
13.851,17453.6
13.8721,17447.9
13.8933,17443.8
13.9145,17440.1
13.9357,17431.2
13.9568,17428.5
13.978,17424.7
13.9992,17417.1
14.0203,17412.8
14.0415,17406.3
14.0627,17399.9
14.0838,17395.9
14.105,17392.2
14.1262,17381.9
14.1474,17378.7
14.1685,17372.8
14.1897,17364.3
14.2108,17358.8
14.232,17354.3
14.2532,17344.2
14.2743,17338.625
14.2955,17330.1
14.3167,17321.9
14.3378,17316.6
14.3591,17309.1
14.3802,17298.8
14.4014,17288
14.4225,17284.4
14.4437,17272.9
14.4648,17266.2
14.4861,17257.2
14.5072,17244
14.5284,17237.7
14.5496,17229.7
14.5707,17217
14.5918,17207.4
14.6131,17198.8
14.6342,17186.4
14.6554,17174.8
14.6765,17166.7
14.6978,17151.9
14.7189,17139.7
14.7401,17131.7
14.7612,17115.4
14.7823,17104.2
14.8036,17090.7
14.8248,17078.4
14.8459,17062.5
14.8671,17052
14.8882,17035
14.9094,17021.1
14.9306,17009
14.9518,16993
14.9729,16974.5
14.9941,16964.9
15.0152,16944.1
15.0364,16929.3
15.0576,16914
15.0787,16895.4
15.0999,16878.7
15.1211,16863.7
15.1423,16844.1
15.1634,16823.1
15.1846,16809.6
15.2058,16790.1
15.2269,16768.8
15.2481,16753.2
15.2693,16731.8
15.2905,16712.6
15.3116,16693.6
15.3328,16673.5
15.3539,16651.1
15.3752,16631.1
15.3963,16610
15.4175,16583.7
15.4387,16565.7
15.4598,16542.5
15.481,16517.3
15.5022,16497
15.5234,16470.1
15.5445,16444.9
15.5657,16423.8
15.5868,16397.1
15.608,16371.4
15.6292,16348.3
15.6503,16321.6
15.6715,16293.5
15.6927,16268.7
15.7139,16243.6
15.735,16211.2
15.7562,16184.6
15.7773,16154.9
15.7985,16124
15.8197,16096.6
15.8409,16063.5
15.8621,16032.9
15.8833,16001.7
15.9044,15973.4
15.9255,15937
15.9468,15905.4
15.9679,15871.2
15.9891,15834
16.0103,15802.3
16.0314,15766.4
16.0526,15730.4
16.0737,15693.9
16.0949,15655.25
16.116,15615.7
16.1373,15578.8
16.1584,15541.7
16.1796,15496.5
16.2008,15456.4
16.2219,15414.5
16.2431,15370.6
16.2643,15329.5
16.2855,15285.6
16.3066,15235.625
16.3279,15186.9
16.349,15138.9
16.3701,15089.9
16.3914,15039.5
16.4125,14988.5
16.4337,14930.5
16.4549,14862.7
16.4761,14799.4
16.4972,14719
16.5184,14650.3
16.5395,14570.1
16.5607,14484.1
16.5819,14392.1
16.6031,14290
16.6243,14189.9
16.6455,14035.1
16.6667,13813.3
16.6879,13363.1
16.7093,12232.2
16.7305,11282
16.7517,10832.6
16.773,10469.8
16.7942,10112.9
16.8154,9599.52
16.8368,8623.52
16.8581,7533.38
16.8687,-4269.48