File: data/PrimaryData/Steel_1018/Tensile_007.csv
Displacement (mm),Load (N)
0.000172601,-10.8755
0.000441165,-9.5622
0.000315981,-9.27653
0.000612424,-7.97098
0.000668345,-6.40932
0.000284123,-9.21167
0.000461024,-9.7326
0.000800099,-8.47068
0.000470599,-7.16786
9.96404e-06,-7.92328
0.000249374,-5.49054
0.00100997,-2.90692
0.00135288,-0.72198
0.00108468,-0.963659
0.000435942,-1.61543
0.00060677,0.101253
1.4787e-05,-0.95911
0.000877184,3.43998
0.000606749,2.37995
0.000390567,3.54551
0.001082,8.60251
0.000726768,8.71442
0.00067621,11.7436
0.00120451,17.5477
0.000862559,15.5876
0.000389901,16.0288
0.000939509,22.7208
0.0010356,24.9604
0.00128327,19.7989
0.00118699,17.7207
0.00123053,19.4718
0.00021574,18.1637
0.00104197,23.5761
0.00070065,23.6746
0.000464767,24.309
0.00122674,31.4595
0.00155113,33.6771
0.000396852,34.9706
0.000436805,39.4037
0.00108025,47.4396
0.00147977,52.9056
0.00134987,57.1998
0.000947005,61.2255
0.000518442,66.1794
0.000653934,72.2453
0.00133811,81.678
0.00182806,90.0249
0.00152315,95.7561
0.000420576,99.7524
0.00131959,109.867
0.00158823,118.265
0.00189576,129.818
0.00195437,139.493
0.00210877,146.295
0.00133475,153.429
0.00148495,163.711
0.00135339,171.986
0.00193094,183.317
0.00253026,195.388
0.00201768,204.18
0.00199585,214.367
0.00152687,225.42
0.0018597,237.354
0.00196731,251.326
0.00277644,268.707
0.00302001,281.343
0.00282233,293.766
0.00262922,304.239
0.00277165,315.57
0.00224293,326.617
0.00230633,338.947
0.00363797,355
0.00371722,368.314
0.00366226,379.68
0.00393285,392.782
0.00393737,405.447
0.00405444,419.504
0.00349358,431.027
0.00324692,442.288
0.00362003,454.068
0.0032353,460.993
0.00407711,472.084
0.00413116,479.064
0.00388013,482.368
0.00452434,487.855
0.0048015,492.982
0.00412221,491.165
0.00446721,493.81
0.00336799,489.787
0.00380733,489.534
0.00349082,488.469
0.00400659,491.065
0.00398494,491.089
0.00355454,490.415
0.00367554,492.03
0.00426334,496.034
0.00410585,498.804
0.00457631,506.347
0.00389381,507.772
0.00450316,512.93
0.00413776,514.219
0.00476333,516.985
0.00443072,520.18
0.00423775,522.016
0.00495243,529.628
0.0044089,534.401
0.00512344,544.664
0.00492456,549.436
0.00425437,553.001
0.00451914,559.183
0.00522701,565.207
0.00428252,566.559
0.0050205,575.407
0.00528006,583.024
0.00470663,586.404
0.00463362,592.31
0.0050123,600.589
0.0057114,605.88
0.00453781,606.817
0.0051477,615.8
0.00504522,622.17
0.00585901,633.515
0.00576775,638.94
0.00554529,640.458
0.00552422,646.906
0.00544401,652.22
0.00533181,657.889
0.00526015,665.902
0.0052395,675.833
0.0054236,683.698
0.00635395,689.773
0.00593414,692.499
0.00552411,697.786
0.00616408,707.951
0.00633921,717.717
0.00653205,725.965
0.00675196,731.852
0.00576747,735.801
0.0065288,743.883
0.00662872,753.253
0.00611413,760.823
0.006173,768.178
0.00698107,777.121
0.006215,782.127
0.00692403,788.14
0.00666894,798.132
0.00659521,807.207
0.00711781,816.791
0.00638587,819.069
0.00739174,828.85
0.00673609,833.799
0.0068802,845.645
0.00764891,855.825
0.00686615,861.18
0.00729762,867.06
0.00781027,876.256
0.00735228,888.42
0.00753004,895.858
0.00798258,905.093
0.0074414,907.514
0.00811798,918.788
0.00743744,929.136
0.00758431,939.201
0.00779783,946.607
0.00823311,955.283
0.00786473,961.728
0.00844098,977.269
0.00832046,984.559
0.00812726,991.031
0.0086927,999.505
0.0084448,1010.41
0.00897243,1024.99
0.00925375,1034.2
0.00917675,1040.69
0.009383,1049.57
0.00933961,1061.92
0.00924066,1071.5
0.00897928,1077.48
0.00866874,1084.75
0.00871444,1095.01
0.00922909,1110.81
0.00983116,1120.26
0.0100608,1126.58
0.00998212,1136.9
0.00961279,1149.1
0.00975713,1160.21
0.0101765,1170.09
0.0103244,1178.95
0.00971101,1189.33
0.0104923,1204.55
0.0104268,1212.49
0.00979099,1219.13
0.0101587,1234.92
0.00988459,1243.02
0.0106757,1252.57
0.0114381,1265.22
0.0114447,1281.31
0.0113718,1289.16
0.0117346,1298.89
0.0113849,1310.22
0.0105524,1321.25
0.010835,1331.49
0.0109582,1339.63
0.0107379,1351.49
0.0111868,1366.53
0.0112777,1376
0.0127533,1392.06
0.0113044,1402.27
0.0122125,1417.98
0.0122277,1428.53
0.0114965,1436.83
0.0120476,1453.09
0.0130225,1464.99
0.0132844,1476.66
0.0133841,1492.92
0.0134085,1505.06
0.0127173,1513.07
0.0126884,1525.49
0.0126423,1539.3
0.0127002,1547.3
0.0138333,1561.66
0.0130697,1577.63
0.0131865,1587.87
0.0141559,1601.73
0.0137545,1617.96
0.014247,1631.89
0.01431,1643.66
0.0141402,1656.83
0.0149334,1675.49
0.014754,1684.39
0.0145519,1696.85
0.0141905,1710.19
0.0155769,1727.59
0.0148646,1738.35
0.0145296,1751.17
0.0148586,1761.91
0.0147691,1773.96
0.0148897,1794.61
0.0150595,1804.23
0.0161414,1821.61
0.0166509,1841.94
0.0165824,1853.16
0.0166346,1863.93
0.0162655,1882.03
0.0161412,1892.73
0.017254,1909.56
0.0170723,1929.76
0.0167069,1937.04
0.0168213,1950.03
0.0171471,1971.98
0.0173437,1979.99
0.0174909,1997.76
0.0179603,2017.4
0.017346,2027.03
0.01805,2046.37
0.0184099,2060.89
0.0179198,2069.53
0.0182991,2092.66
0.0190189,2109.15
0.0193722,2122.85
0.0192329,2140.85
0.0188981,2150.73
0.0187409,2167.16
0.0189228,2187.45
0.0199415,2202.26
0.0199215,2219.44
0.0191235,2232.01
0.0195149,2246.61
0.0206175,2269.82
0.0198279,2281.31
0.0201942,2299.41
0.020581,2317.56
0.0208278,2330.2
0.0200849,2348.66
0.0213055,2367.69
0.0210909,2383.94
0.0207149,2400.22
0.0220938,2416.57
0.0213075,2435.96
0.0214048,2450.51
0.0221846,2472.29
0.0216752,2488.21
0.022394,2504.95
0.0230562,2526.62
0.0231321,2540.44
0.0224998,2559.32
0.0232461,2578.79
0.023655,2595.45
0.0238573,2614.61
0.0237745,2627.02
0.0232749,2647.09
0.0235921,2665.65
0.0244954,2687.87
0.0249642,2704.99
0.024966,2719.01
0.0251437,2744.25
0.0254964,2758.41
0.0255664,2779.64
0.0254648,2793.77
0.0247003,2810.44
0.0260441,2831.53
0.0255145,2848.71
0.0258646,2869.03
0.02681,2888.06
0.0267591,2911.42
0.0264746,2923.82
0.0266339,2948.58
0.0268321,2961.91
0.0276686,2989.16
0.0278469,3004.7
0.0280842,3027.63
0.0275412,3041.83
0.0275771,3060.85
0.0276626,3079.21
0.0279359,3100.2
0.028354,3122.85
0.0291874,3143.73
0.0286322,3162.76
0.0292141,3182.14
0.0297981,3208.29
0.0301972,3226.35
0.030091,3247.72
0.030454,3264.14
0.0311622,3291.51
0.0312675,3307.52
0.0310035,3332.12
0.0308354,3349.42
0.0308884,3373.19
0.0315923,3389.04
0.0326029,3419.26
0.0326768,3437.01
0.0329557,3461.04
0.0332004,3476.1
0.0333524,3503.21
0.0334639,3518.93
0.033864,3545.46
0.0341832,3564.1
0.0344805,3591.34
0.0345911,3607.62
0.0349094,3634.84
0.0349066,3684.68
0.0347302,3687.88
0.0357372,3712.94
0.0355428,3729.34
0.0353826,3750.22
0.0357215,3771.24
0.0357311,3792.62
0.0373048,3820.5
0.0372878,3841.61
0.0375819,3865.96
0.0378628,3887.76
0.0371634,3907.15
0.0381011,3930.35
0.0382148,3954.79
0.0382033,3972.88
0.0386038,4000.74
0.0394889,4021.41
0.0392743,4042.8
0.0394567,4067.25
0.0406533,4093.17
0.0404791,4115.95
0.0402783,4135.88
0.0412725,4166.03
0.0412483,4182.99
0.0408435,4206.72
0.0415507,4229.98
0.0415615,4251.09
0.0420927,4279.05
0.0420957,4301.15
0.0429835,4327.6
0.0436105,4351.96
0.044169,4377.74
0.0447015,4402.72
0.0448977,4424.83
0.0447826,4448.55
0.0455157,4471.03
0.0456137,4496.71
0.0461594,4521.85
0.046702,4547.67
0.0469014,4573.94
0.0473335,4597.71
0.0477504,4626.37
0.0473989,4644.69
0.0479192,4669.39
0.0486006,4698.59
0.0482064,4717.25
0.0491389,4745.45
0.0496994,4774.65
0.0495684,4794.05
0.0501756,4825.25
0.050288,4844.41
0.0511746,4871.78
0.0506227,4895.88
0.0520855,4921.76
0.0518258,4946.04
0.0522778,4971.91
0.0526468,4995.31
0.053254,5023.71
0.0536104,5048.57
0.0535397,5070.39
0.0552716,5100.56
0.0545355,5119.17
0.0553506,5148.89
0.056459,5178.38
0.0557026,5198.53
0.056927,5227.1
0.0565244,5252.56
0.0576418,5279.64
0.0573553,5300.34
0.0588095,5333.17
0.0590601,5356.48
0.0596027,5382.97
0.0600041,5412.67
0.0604323,5436.62
0.0607964,5462.28
0.0611599,5491.2
0.061822,5516.58
0.0622182,5539.81
0.0629964,5569.59
0.0628186,5594.56
0.0634242,5615.66
0.0642779,5648.23
0.0650846,5675.49
0.0651613,5697.52
0.065089,5723.69
0.0661877,5756.67
0.0660936,5776.66
0.066917,5803.28
0.0681619,5835.55
0.0679892,5859.32
0.0688368,5882.96
0.0694841,5914.74
0.0697346,5940.17
0.0703822,5965.25
0.0711351,5992.79
0.0716104,6022.32
0.0724709,6047.38
0.0732437,6075.78
0.0736262,6103.67
0.073889,6129.66
0.074885,6156.48
0.075703,6183.89
0.0764765,6211.82
0.0766215,6239.52
0.0776702,6263.48
0.0780481,6288.02
0.0784905,6317.79
0.0791284,6343.89
0.0795183,6365.69
0.080846,6396.5
0.0816391,6424.32
0.0822808,6449.33
0.0830003,6475.06
0.0838043,6502.63
0.0841063,6528.02
0.0851557,6555.47
0.0860158,6578.66
0.0863173,6604.31
0.0871009,6633.04
0.0874901,6658.56
0.0885031,6683.09
0.0891321,6709.49
0.0902432,6737.87
0.0913187,6764.01
0.0922017,6788.5
0.092453,6809.49
0.0934451,6836.58
0.094118,6864.82
0.0949374,6888.76
0.0960053,6913.08
0.0969022,6937.83
0.0981612,6963.28
0.0985493,6990.22
0.0989018,7011.61
0.100474,7036.85
0.100732,7059.92
0.102421,7088.86
0.102967,7111.76
0.103918,7137.57
0.104221,7156.33
0.106251,7185.99
0.106475,7208.81
0.107773,7237.69
0.108791,7257.36
0.109717,7279.72
0.111084,7304.22
0.111957,7327.4
0.112626,7353.95
0.113846,7379.13
0.115798,7401.7
0.116178,7421.66
0.117243,7443.8
0.118805,7470.89
0.120304,7493.86
0.120595,7513.64
0.122011,7536.39
0.123607,7556.82
0.124272,7579.83
0.126515,7607.07
0.126704,7626.61
0.128351,7647.76
0.129308,7666.95
0.130972,7689.81
0.131442,7710.75
0.133335,7734.94
0.134646,7756.25
0.135541,7776.58
0.136746,7796.15
0.138524,7816.71
0.140707,7841.92
0.142042,7862.32
0.142976,7880.68
0.144142,7898.28
0.145383,7917.72
0.147352,7937.85
0.149199,7958.75
0.151215,7979.97
0.152952,8000.04
0.154063,8018.03
0.154717,8033.9
0.157056,8057.84
0.158802,8075.54
0.159844,8090.09
0.162122,8109.78
0.163158,8124.81
0.165965,8146.87
0.166838,8161.42
0.16828,8181.3
0.171008,8201.59
0.172496,8218.83
0.173761,8231.09
0.176474,8250.99
0.177498,8262.7
0.180528,8284.22
0.182317,8300.26
0.184123,8317.28
0.186014,8332.68
0.187229,8344.98
0.18918,8359.63
0.191976,8372.81
0.1932,8384.97
0.195934,8402.56
0.197865,8419.29
0.199509,8431.99
0.202136,8450.66
0.204143,8465.17
0.2062,8474.69
0.208916,8490.09
0.210719,8504.22
0.212813,8515.46
0.215744,8529.15
0.217727,8541.91
0.220332,8555.85
0.222611,8566.29
0.224404,8580.68
0.227358,8592.36
0.229592,8603.87
0.232439,8612.93
0.234747,8623.24
0.236727,8632.75
0.239286,8642.48
0.242589,8658.8
0.244833,8667.47
0.247321,8679.23
0.249905,8689.48
0.252658,8702.67
0.254661,8709.01
0.257834,8720.24
0.260059,8726.34
0.263399,8736.07
0.26597,8744.27
0.269267,8757.58
0.272053,8766.08
0.27449,8773.49
0.276889,8781.71
0.280025,8789.51
0.283453,8799.96
0.28547,8805
0.289373,8815.77
0.291889,8818.03
0.294944,8825.18
0.297861,8833.25
0.301001,8842.36
0.303273,8847.36
0.306684,8853.92
0.309536,8862.78
0.313054,8869.74
0.316599,8878.88
0.319587,8882.96
0.322829,8888.94
0.325438,8891.39
0.329209,8896.28
0.332662,8905.52
0.335298,8907.02
0.338942,8916.59
0.34211,8922.22
0.344703,8924.68
0.348006,8929.24
0.351255,8935.27
0.354651,8938.88
0.357122,8872.25
0.367135,9153.96
0.380003,9176.64
0.39299,9185.94
0.405375,9193.47
0.418111,9202.77
0.431288,9215.61
0.444058,9229.88
0.457348,9238.32
0.470409,9248.65
0.4836,9259.7
0.496489,9265.09
0.510224,9281.21
0.523496,9289.08
0.537217,9297.78
0.550434,9306.17
0.564195,9314.06
0.577504,9321.12
0.591123,9331.88
0.604739,9339.47
0.618243,9345.02
0.631279,9351.67
0.644819,9356.54
0.658624,9364.27
0.672443,9374.18
0.685516,9377.03
0.699692,9382.03
0.71353,9392.35
0.726357,9395.74
0.740563,9400.77
0.754853,9409.85
0.768979,9415.23
0.782378,9418.66
0.79615,9422.14
0.809951,9429.57
0.823473,9430.4
0.837902,9438.32
0.852083,9442.56
0.865985,9444.28
0.879931,9453.375
0.893913,9456.64
0.908398,9462.92
0.921974,9464.81
0.935625,9468.24
0.949415,9469.55
0.964248,9475.84
0.978263,9484.18
0.992401,9483.06
1.00716,9492.21
1.02093,9495.41
1.03547,9497.17
1.04947,9504.23
1.06362,9506.03
1.07798,9505.91
1.09172,9510.77
1.10582,9513.16
1.12035,9515.13
1.13512,9521.97
1.14901,9526.82
1.16284,9522.92
1.17748,9530.75
1.19124,9532.16
1.20631,9537.62
1.22045,9540.96
1.23492,9541.62
1.2496,9544.47
1.2699,9550.39
1.29105,9550.96
1.31219,9553.06
1.33338,9555.29
1.35453,9557.43
1.37567,9560.01
1.39691,9564.67
1.41805,9565.74
1.4392,9563.55
1.46044,9568.03
1.48154,9572.54
1.50268,9576.26
1.52387,9577.18
1.54506,9579.63
1.56621,9580.92
1.5874,9583.82
1.6085,9588.87
1.62964,9589.12
1.65088,9589.64
1.67202,9594.21
1.69322,9593.03
1.71441,9593.9
1.73555,9597.05
1.7567,9601.71
1.77789,9601.83
1.79903,9597.97
1.82018,9604.97
1.84142,9606.26
1.86256,9608.78
1.88371,9609.99
1.9049,9611.12
1.92604,9611.94
1.94719,9617.4
1.96838,9614.32
1.98952,9620.32
2.01071,9618.75
2.03191,9622.28
2.05305,9620.5
2.0742,9624.75
2.09539,9625.85
2.11653,9624.52
2.13768,9625.74
2.15891,9628.1
2.18001,9632.22
2.2012,9632.76
2.2224,9632.11
2.24359,9636.14
2.26473,9633.73
2.28588,9638.75
2.30707,9637.02
2.32821,9642.55
2.3494,9637.85
2.37055,9637.86
2.39169,9645.16
2.41293,9642.6
2.43408,9644.29
2.45527,9645.42
2.47641,9647.3
2.49756,9647.58
2.5187,9648.63
2.53989,9648.18
2.56104,9646.32
2.58218,9652.73
2.60342,9650.62
2.62457,9651.43
2.64571,9655.14
2.66686,9654.85
2.68805,9655.75
2.70919,9653.81
2.73038,9656.23
2.75148,9658.45
2.77267,9661.88
2.79386,9664.15
2.81501,9658.66
2.8362,9663.12
2.85739,9665.59
2.87854,9662.94
2.89968,9664.57
2.92092,9664.85
2.94206,9663.93
2.96321,9666.63
2.9844,9666.47
3.00554,9665.1
3.02674,9670.58
3.04793,9665.86
3.06907,9666.36
3.09022,9667.87
3.11136,9672.83
3.13251,9667.52
3.1537,9674.84
3.17494,9672.19
3.19603,9670.77
3.21723,9676.85
3.23842,9676.51
3.25956,9672.55
3.28071,9676.68
3.3019,9673.98
3.323,9674.66
3.34419,9675.62
3.36538,9681.12
3.38657,9673.09
3.40776,9679.07
3.42891,9680.14
3.45005,9677.93
3.47124,9680.25
3.49239,9680.27
3.51353,9680.02
3.53472,9680.04
3.55592,9681.23
3.57701,9681.76
3.59825,9681.94
3.6194,9681.96
3.64054,9680.62
3.66169,9680.67
3.68292,9686.78
3.70402,9681.68
3.72526,9684.94
3.74641,9680.23
3.7675,9682.83
3.7887,9684.58
3.80984,9687.28
3.83098,9687.33
3.85227,9683.63
3.87337,9686.73
3.89447,9684.41
3.91566,9689.4
3.93685,9688.12
3.95799,9686.07
3.97923,9690.88
4.00038,9687.23
4.02147,9689.44
4.04267,9689.96
4.06386,9690.97
4.08496,9687.1
4.10619,9684.65
4.12729,9692.33
4.14848,9688.09
4.16972,9689.34
4.19091,9690.43
4.21201,9688.24
4.2332,9687.69
4.25435,9694.16
4.27545,9692.45
4.29673,9690.67
4.31787,9689.91
4.33893,9690.12
4.36021,9692
4.38136,9695.84
4.4025,9689.63
4.42374,9688.89
4.44493,9692.53
4.46598,9692.57
4.48722,9692.51
4.50836,9692.61
4.52951,9688.39
4.55079,9690.56
4.57194,9695.4
4.59304,9691.67
4.61427,9691.24
4.63542,9692.45
4.65652,9689.61
4.67776,9691.19
4.6989,9694.84
4.72,9691.32
4.74128,9692.94
4.76243,9692.18
4.78353,9689.34
4.80467,9691.37
4.82591,9695.12
4.84701,9693.92
4.86825,9689.56
4.88939,9692.09
4.91054,9689.07
4.93177,9691.69
4.95292,9694.36
4.97402,9692.02
4.99525,9691.56
5.01635,9694.5
5.03745,9690.06
5.05869,9690.48
5.07993,9694.31
5.10093,9689.33
5.12226,9687.57
5.14336,9694.29
5.16451,9691.43
5.1857,9688.55
5.20693,9693.08
5.22799,9691.64
5.24922,9687.4
5.27032,9692.3
5.29147,9690.17
5.31271,9687.71
5.33394,9688.31
5.35499,9690.96
5.37623,9687.43
5.39738,9688.49
5.41848,9690.38
5.43967,9687.67
5.46086,9688.81
5.48191,9686.21
5.50319,9691.39
5.52439,9688.64
5.54548,9686.71
5.56668,9685.69
5.58791,9686.75
5.60897,9689.87
5.6302,9687.92
5.65135,9688.14
5.67249,9684.2
5.69373,9687.13
5.71488,9686.48
5.73602,9686.15
5.75726,9683.86
5.7784,9685.67
5.7995,9683.03
5.82074,9683.82
5.84188,9685.29
5.86298,9686.26
5.88422,9685.96
5.90541,9682.05
5.92651,9684.46
5.9477,9681.19
5.96889,9681.5
5.99004,9685.375
6.01123,9680.03
6.03237,9679.76
6.05352,9681.62
6.07471,9684.44
6.09595,9676.83
6.11705,9682.09
6.13824,9678.84
6.15938,9677.97
6.18048,9683.4
6.20172,9682.4
6.22291,9679.29
6.24406,9677.14
6.26525,9680.29
6.28639,9681.24
6.30754,9679.64
6.32868,9680.36
6.34992,9675.79
6.37102,9677.46
6.39221,9679.5
6.41335,9677.08
6.43455,9678.17
6.45574,9676.875
6.47688,9669.31
6.49803,9674.71
6.51922,9676.75
6.54041,9676.17
6.56151,9671.53
6.58274,9671.39
6.60389,9667.95
6.62499,9670.8
6.64618,9675.41
6.66737,9670.49
6.68856,9667.91
6.70975,9668.49
6.7309,9667.46
6.75204,9668.19
6.77323,9671.72
6.79438,9669.57
6.81557,9663.97
6.83672,9665.22
6.85786,9662.07
6.87905,9666.12
6.90024,9667.68
6.92139,9660.72
6.94249,9665.87
6.96372,9666.54
6.98487,9665.24
7.00601,9667.91
7.02725,9662.38
7.04835,9658.73
7.06954,9658.54
7.09069,9662.08
7.11183,9657.95
7.13302,9660.92
7.15421,9659.69
7.17531,9654.45
7.1965,9654.78
7.21774,9660
7.23884,9651.34
7.26008,9657.68
7.28122,9656.07
7.30232,9653.2
7.32351,9653.57
7.3447,9655.65
7.3658,9655.42
7.38704,9653.78
7.40818,9656.3
7.42933,9652.42
7.45057,9652.05
7.47176,9650.86
7.49286,9648.63
7.51405,9647.29
7.53519,9648.71
7.55629,9649.63
7.57753,9646.88
7.59872,9644.67
7.61982,9646.81
7.64106,9646
7.6622,9648.73
7.68335,9645.13
7.70454,9640.94
7.72573,9644.76
7.74678,9640.49
7.76797,9643.16
7.78921,9639.56
7.81031,9638.84
7.83155,9639.99
7.85269,9641.51
7.87384,9640.13
7.89507,9638.3
7.91627,9639.09
7.93736,9635.82
7.95855,9633.7
7.97975,9637.51
8.0008,9631.15
8.02208,9631.66
8.04327,9633.13
8.06437,9632.72
8.08552,9632.74
8.10675,9634.47
8.12781,9631.24
8.14904,9627.84
8.17024,9630.88
8.19133,9627.6
8.21253,9626.35
8.23376,9627.6
8.25486,9624.69
8.2761,9623.46
8.29729,9620.94
8.31834,9622.96
8.33953,9621.9
8.36077,9620.94
8.38182,9619.27
8.40311,9616.47
8.42425,9618.22
8.44535,9617.79
8.46654,9618.48
8.48778,9618.42
8.50888,9615.14
8.53007,9614.33
8.55122,9612.58
8.57231,9610.97
8.59355,9609.28
8.61479,9608.57
8.63584,9611.43
8.65708,9609.4
8.67827,9610.69
8.69937,9606.4
8.72056,9604.12
8.7418,9604.14
8.76285,9604.39
8.78409,9603.43
8.80528,9604.04
8.82642,9600.6
8.84757,9602.38
8.86881,9600.27
8.88981,9602.23
8.9111,9598.48
8.93224,9594.76
8.95339,9595.8
8.97462,9594.03
8.99577,9595.1
9.01691,9593.77
9.0381,9591.12
9.0593,9592.29
9.08044,9587.9
9.10159,9587.41
9.12282,9586.74
9.14388,9587.36
9.16516,9586.59
9.1863,9584.05
9.2074,9583.98
9.22859,9583.96
9.24979,9582.65
9.27088,9580.97
9.29208,9579.8
9.31317,9578.83
9.33432,9578.96
9.35551,9580.13
9.3767,9573.34
9.3978,9574.71
9.41904,9576.28
9.44018,9571.51
9.46133,9573.4
9.48252,9571.15
9.50371,9567.36
9.52485,9567.36
9.54605,9568
9.56719,9564.81
9.58834,9565.41
9.60953,9565.28
9.63077,9561.68
9.65182,9560.89
9.67305,9562.45
9.69415,9562.13
9.71534,9562.38
9.73654,9556.28
9.75773,9555.24
9.77887,9556.49
9.80006,9557.23
9.82121,9552.32
9.8424,9550.96
9.86359,9551.47
9.88478,9546.67
9.90583,9545.99
9.92707,9547.45
9.94826,9543.75
9.96941,9545.4
9.9906,9546.49
10.0117,9542.24
10.0328,9539.85
10.0541,9541.3
10.0752,9539.44
10.0964,9536.87
10.1176,9539.71
10.1387,9535.78
10.1599,9533.76
10.1811,9535.06
10.2022,9529.5
10.2234,9530.69
10.2446,9532.92
10.2658,9528.68
10.2869,9528.05
10.3081,9528.03
10.3292,9522.59
10.3504,9524.35
10.3715,9526.01
10.3927,9521.22
10.4139,9518.36
10.4351,9522.07
10.4562,9514.01
10.4773,9514.26
10.4985,9515.18
10.5197,9511.72
10.5409,9509.56
10.5621,9509.86
10.5832,9510.48
10.6044,9505.17
10.6255,9508.55
10.6467,9503.99
10.6678,9499.76
10.689,9502.78
10.7102,9500.51
10.7314,9497.69
10.7526,9497.81
10.7737,9498.21
10.7948,9494.59
10.8161,9492.99
10.8371,9491.39
10.8584,9487.4
10.8796,9488.66
10.9007,9487.19
10.9219,9486.4
10.9431,9486.15
10.9642,9480.85
10.9853,9480.61
11.0066,9481.4
11.0277,9476.52
11.0488,9475.82
11.0701,9475.82
11.0912,9471.15
11.1124,9469.97
11.1336,9472.74
11.1547,9471.86
11.1759,9466.59
11.1971,9465.7
11.2182,9464.9
11.2394,9460.04
11.2606,9462.65
11.2817,9461.47
11.3029,9456.64
11.3242,9454.98
11.3453,9453.03
11.3664,9447.75
11.3876,9449.06
11.4087,9448.11
11.4299,9444.61
11.4511,9443.9
11.4723,9442.46
11.4934,9439.47
11.5146,9440.76
11.5358,9438.47
11.5569,9433.14
11.5781,9432.81
11.5992,9434.44
11.6204,9429.29
11.6416,9429.22
11.6628,9423.92
11.6839,9422.55
11.7051,9420.35
11.7262,9422.14
11.7474,9417.61
11.7686,9416.55
11.7898,9413.85
11.8109,9409.56
11.8321,9407.95
11.8532,9409.23
11.8744,9404.02
11.8956,9401.66
11.9168,9403.07
11.9379,9399.47
11.9591,9397.76
11.9802,9394.64
12.0014,9392.28
12.0226,9390.95
12.0437,9388.58
12.0649,9386.125
12.0861,9383.06
12.1073,9381.83
12.1284,9376.6
12.1496,9373.23
12.1708,9376.19
12.1919,9372.98
12.2131,9369.33
12.2342,9369.18
12.2554,9363.71
12.2766,9359.93
12.2978,9358.75
12.3189,9358.28
12.3401,9355.07
12.3612,9354.09
12.3824,9350.5
12.4036,9345.54
12.4247,9346.85
12.4459,9342.51
12.4671,9336.64
12.4883,9337.72
12.5094,9333.15
12.5306,9328.94
12.5518,9329.86
12.5729,9326.05
12.5941,9318.81
12.6153,9319.34
12.6364,9316.25
12.6576,9313.69
12.6788,9313.14
12.6999,9307.16
12.7211,9302.64
12.7422,9300.61
12.7634,9299.97
12.7846,9296.73
12.8058,9291.04
12.8269,9289.37
12.8481,9283.33
12.8693,9281.03
12.8904,9282.99
12.9116,9272.54
12.9328,9273.53
12.9539,9267.47
12.9751,9265.7
12.9963,9262.34
13.0174,9257.31
13.0386,9254.7
13.0598,9250.97
13.0809,9247.52
13.1021,9243.52
13.1233,9239.11
13.1444,9237.79
13.1656,9229.63
13.1868,9228.71
13.2079,9223.15
13.2291,9220.26
13.2503,9217.79
13.2714,9210.61
13.2926,9204.04
13.3138,9201.89
13.3349,9196.77
13.3561,9193.04
13.3773,9186.71
13.3984,9184.62
13.4196,9177.18
13.4408,9174.13
13.4619,9174.03
13.4831,9165.52
13.5043,9158.1
13.5255,9156.53
13.5466,9148.94
13.5678,9143.98
13.5889,9140.79
13.6101,9134.63
13.6314,9125.76
13.6524,9123.51
13.6736,9114.2
13.6948,9112.41
13.716,9107.8
13.7371,9100.14
13.7583,9092.94
13.7794,9085.69
13.8006,9079.92
13.8218,9077.47
13.843,9070.04
13.8641,9063.17
13.8853,9053.58
13.9064,9052.89
13.9276,9044.75
13.9488,9034.27
13.97,9026.29
13.9911,9018.61
14.0123,9014.13
14.0335,9006.45
14.0546,9000.09
14.0758,8992.4
14.097,8983.13
14.1181,8975.97
14.1393,8968.35
14.1605,8962
14.1817,8951.84
14.2028,8943.6
14.224,8933.75
14.2451,8927.28
14.2663,8919.4
14.2875,8909.61
14.3087,8898.67
14.3298,8891.2
14.351,8881.92
14.3721,8874.07
14.3934,8863.23
14.4145,8851.03
14.4357,8843.86
14.4568,8832.96
14.478,8824.05
14.4991,8814.17
14.5204,8801.44
14.5415,8792.98
14.5626,8782.78
14.5838,8775.02
14.6051,8761.6
14.6262,8752.54
14.6474,8739.74
14.6685,8728.25
14.6897,8718.32
14.7108,8707.91
14.7321,8695.86
14.7532,8684.97
14.7744,8672.13
14.7955,8659.95
14.8167,8649.13
14.8379,8637.83
14.8591,8619.54
14.8802,8610.66
14.9014,8599.09
14.9225,8583.16
14.9437,8573.15
14.9649,8558.47
14.9861,8544.78
15.0072,8530.26
15.0284,8519.23
15.0495,8506.61
15.0707,8491.34
15.0919,8475.59
15.113,8458.78
15.1342,8450.54
15.1554,8433.49
15.1765,8412.39
15.1978,8405.27
15.2189,8381.78
15.2401,8371.99
15.2612,8358.82
15.2824,8338.39
15.3036,8323.32
15.3247,8306.2
15.3459,8294.61
15.3671,8276.36
15.3883,8260.02
15.4094,8240.57
15.4306,8221.15
15.4518,8209.32
15.4729,8189.71
15.4941,8170.29
15.5153,8153.3
15.5365,8137.14
15.5576,8115.05
15.5788,8097.62
15.5999,8082.97
15.6212,8061.43
15.6423,8041.57
15.6635,8021.02
15.6847,7998.97
15.7058,7981.07
15.7269,7961.46
15.7482,7938.78
15.7693,7921.7
15.7905,7900.5
15.8117,7876.12
15.8329,7853.13
15.854,7833.39
15.8752,7810.22
15.8963,7786.97
15.9175,7762.82
15.9387,7739.75
15.9599,7721.84
15.981,7696.01
16.0022,7667.89
16.0233,7645.78
16.0445,7623.98
16.0657,7597.12
16.0869,7573.53
16.108,7545.48
16.1292,7517.44
16.1504,7496.68
16.1715,7469.68
16.1927,7438.7
16.2139,7411.78
16.235,7384.21
16.2562,7350.45
16.2774,7326.125
16.2985,7298.17
16.3197,7266.03
16.3409,7236.62
16.362,7206.22
16.3832,7174.7
16.4044,7144.11
16.4256,7113.92
16.4468,7077.36
16.4679,7046.5
16.4891,7013.87
16.5102,6979.4
16.5315,6944.31
16.5526,6908.12
16.5738,6874.67
16.595,6834.72
16.6161,6802.22
16.6373,6765.52
16.6585,6723.38
16.6796,6685.48
16.7008,6645.61
16.722,6606.75
16.7432,6565.69
16.7643,6524.33
16.7855,6480.16
16.8067,6439.32
16.8278,6396.24
16.849,6348.95
16.8702,6303.39
16.8914,6257.48
16.9126,6209.79
16.9336,6163.31
16.9548,6112.87
16.976,6058.97
16.9972,6010.76
17.0184,5957.56
17.0396,5901.87
17.0607,5846.45
17.0818,5792.36
17.1031,5733.88
17.1243,5674.87
17.1454,5613.24
17.1666,5548.74
17.1878,5487.81
17.2089,5420.67
17.2301,5352
17.2512,5282.01
17.2724,5205.55
17.2937,5136.9
17.3148,5057.6
17.336,4976.15
17.3572,4897.26
17.3783,4809.5
17.3995,4719.65
17.4207,4625.29
17.4419,4532.85
17.4631,4423.99
17.4843,4311.83
17.5054,4011.49
17.5271,298.947
17.5316,-470.77