File: data/PrimaryData/Steel_1018/Tensile_test_5.csv
Displacement (mm),Load (N)
0.000130242,1.19146
0.00016835,1.12852
0.000236359,4.03967
0.000468104,4.47317
0.000385287,6.57275
0.00036061,9.0691
0.000356784,10.5122
0.000473126,11.5816
0.000357073,13.409
0.000430623,15.4144
0.000206356,17.3602
0.000573248,19.223
0.000350104,22.8951
0.000366256,21.3396
0.000507677,25.3103
0.000448445,28.0717
0.00067446,29.989
0.000434326,34.0888
0.000246608,37.9892
0.000629243,43.4067
0.000727778,48.115
0.000559778,52.9429
0.000684869,58.3003
0.000636057,63.3447
0.000883876,71.4482
0.000711544,76.7648
0.00107255,82.5567
0.000784959,89.8188
0.00105756,97.083
0.000983958,103.789
0.000775611,111.611
0.000751759,118.438
0.00102027,125.991
0.000910713,132.239
0.0011321,141.027
0.00112991,146.843
0.000955942,153.776
0.00123731,161.04
0.00122127,168.68
0.00141662,175.225
0.00138233,181.467
0.00152691,187.718
0.00158096,195.781
0.00137422,202.003
0.00149386,207.021
0.00142764,212.83
0.00160278,219.132
0.00174619,220.193
0.00174934,225.384
0.00163945,226.87
0.0016499,229.213
0.00135994,230.993
0.00165601,233.05
0.00152875,235.576
0.00158159,238.478
0.00165855,241.195
0.00176164,244.599
0.00170191,249.439
0.00181721,249.629
0.00176494,252.713
0.00168438,256.248
0.00167583,260.929
0.00183043,266.359
0.00189431,270.683
0.00193368,274.324
0.00190573,278.041
0.00180543,280.876
0.00207977,285.854
0.00197922,290.227
0.00182609,294.456
0.00205377,300.248
0.00197226,292.357
0.00190998,282.232
0.00174269,276.582
0.00169822,274.566
0.0017335,273.819
0.00174588,274.346
0.00174571,277.857
0.00194186,281.389
0.0018714,285.862
0.00197428,290.97
0.00211451,296.595
0.00190154,301.464
0.00216488,305.056
0.0021938,308.682
0.00188639,310.707
0.00198782,314.83
0.00193652,319.242
0.00217176,324.784
0.0022402,327.804
0.00202697,332.89
0.00218149,337.023
0.00209124,340.084
0.00225753,342.942
0.00221235,346.607
0.00216089,351.699
0.00238232,358.266
0.00224105,362.847
0.00246168,370.369
0.00251622,373.912
0.00246189,377.52
0.00238586,380.661
0.00219845,385.226
0.00208477,389.908
0.00223425,397.614
0.00249665,403.398
0.00240691,406.393
0.00239662,410.904
0.00256855,413.588
0.00248507,419.078
0.0026206,423.591
0.00253878,430.172
0.00272652,437.772
0.00261219,441.684
0.00258983,447.428
0.00276409,449.208
0.00305721,456.234
0.00284622,461.89
0.00275316,470.247
0.00296614,477.188
0.00289263,479.391
0.0028382,483.136
0.00301389,489.366
0.0028093,495.384
0.00306916,502.209
0.00290186,508.324
0.00287735,510.997
0.00305603,517.678
0.00310426,523.379
0.00305383,532.126
0.00303911,538.84
0.00303661,543.875
0.00331922,548.665
0.0030767,552.354
0.00344186,561.84
0.00341711,568.444
0.00313421,573.938
0.00354595,578.386
0.00306598,583.685
0.00353217,590.456
0.00358567,600.444
0.00360984,607.368
0.00368273,612.505
0.00383238,618.097
0.00343138,624.256
0.00370046,634.495
0.00349035,642.384
0.0037095,646.369
0.00411115,651.125
0.00378021,658.959
0.00387794,668.284
0.00399175,675.525
0.00398967,681.337
0.00384309,686.632
0.00387204,695.504
0.00416887,705.457
0.00421324,709.855
0.00408633,716.76
0.00406461,722.865
0.00437639,733.974
0.00438747,741.52
0.00423238,748.16
0.00433258,754.026
0.00430783,765.025
0.00433678,774.845
0.00466291,782.805
0.00453666,788.954
0.00478939,796.894
0.00461655,808.749
0.00460491,816.064
0.00457078,821.225
0.00457679,830.991
0.00478223,842.378
0.00479799,850.613
0.00499713,856.88
0.004789,864.134
0.00494776,875.675
0.00504362,884.889
0.00507487,889.817
0.00510863,898.935
0.00522877,911.354
0.0051207,917.919
0.00521672,926.019
0.00518938,936.028
0.00537292,949.767
0.00553106,954.883
0.0055246,963.599
0.00545906,976.439
0.00565683,987.432
0.00600166,994.288
0.00575467,1002.19
0.00561876,1014.82
0.00608691,1024.4
0.00573941,1031.77
0.00604323,1042.98
0.00608125,1054.54
0.00618774,1063.27
0.00609779,1071.75
0.00620864,1085.99
0.00634299,1093.5
0.00638301,1101.37
0.00649918,1113.95
0.00643062,1124.39
0.00659805,1133.76
0.00672796,1146.14
0.00640701,1160.24
0.00648835,1167.42
0.00669686,1176.52
0.00646824,1190.55
0.0070006,1200.74
0.00714162,1208.8
0.00721862,1224.92
0.00693819,1235.18
0.00722517,1243.57
0.00715944,1255.31
0.00725986,1265.95
0.0072204,1274.6
0.00742408,1289.27
0.00743239,1301.22
0.00790363,1309.59
0.00762677,1322.19
0.00774604,1335.17
0.00764685,1343.71
0.00811553,1358.46
0.00773355,1371.39
0.00804565,1380.35
0.00791162,1392.41
0.0080179,1404.98
0.00802955,1413.21
0.00812026,1430.14
0.00822132,1439.28
0.00818876,1450.38
0.00830417,1466.47
0.00853603,1476.52
0.00850937,1486.78
0.00862362,1504.18
0.00878498,1514.41
0.00901149,1525.68
0.00877532,1541.54
0.00906276,1552.23
0.00888121,1563.38
0.0091459,1580.3
0.00914025,1589.43
0.00942532,1605.67
0.00932648,1616.86
0.00963572,1628.82
0.00938753,1644.87
0.00948992,1654.37
0.00962409,1668.88
0.00999455,1684.05
0.00965704,1695.25
0.00994257,1712.36
0.0100741,1723.01
0.0103256,1736.75
0.010131,1754.02
0.0102952,1764.39
0.0104258,1782.76
0.0105241,1793.01
0.0105068,1806.82
0.0106742,1823.63
0.0106528,1835.17
0.010637,1852.46
0.0108718,1863.95
0.0108996,1878.55
0.011174,1895.61
0.0112109,1906.48
0.0111273,1926.21
0.0113415,1935.06
0.0113065,1952.13
0.011458,1966.11
0.011654,1980.33
0.0114759,1998.45
0.0115207,2009.34
0.011731,2028.13
0.0117915,2040.35
0.0122422,2057.46
0.0120463,2073.34
0.0120755,2087.8
0.0123544,2104.46
0.0124827,2116.15
0.0125397,2136.5
0.012511,2148.21
0.0129364,2168.75
0.0128765,2180.24
0.0128684,2199.66
0.0131503,2214.34
0.0133716,2230.99
0.0132486,2246.4
0.0130658,2259.26
0.0132837,2279.62
0.0134019,2293.52
0.0136991,2313.6
0.0136815,2324.42
0.0138985,2346.25
0.0138144,2360.17
0.0140633,2380.05
0.014199,2394.2
0.0142491,2414.24
0.0143374,2426.55
0.0143017,2446.42
0.0143532,2460.85
0.0143809,2479.53
0.0143513,2495.3
0.0147237,2513.91
0.0148117,2530.74
0.0150265,2550.03
0.01494,2566.92
0.0154901,2584.77
0.0155455,2602.22
0.0153763,2620.83
0.0156243,2636.62
0.0158154,2655.2
0.0158032,2670.82
0.0157694,2692.86
0.016069,2709.04
0.0162156,2730.69
0.0161273,2745.31
0.0163665,2775.34
0.0167396,2796.63
0.0166901,2810.08
0.0166684,2827.31
0.016858,2846.82
0.0171773,2865.95
0.0172507,2883.72
0.0171974,2903.54
0.0174891,2921.15
0.0177743,2943.78
0.0175952,2960.52
0.0178567,2981.41
0.0179083,2999.94
0.0178638,3021.29
0.0181534,3039.12
0.0181617,3057
0.018205,3079.35
0.0186745,3098.08
0.0186962,3118.83
0.018817,3136.79
0.0189701,3160.75
0.0190584,3176.94
0.0189263,3196.61
0.0191749,3217.64
0.019544,3238
0.0194893,3261.57
0.0197787,3277.11
0.0198562,3300.88
0.0199876,3321.29
0.0201834,3342.28
0.020168,3363.42
0.0200772,3381.95
0.0206095,3407.42
0.0205155,3425.87
0.0208206,3446.84
0.0210317,3472.12
0.0211249,3490.95
0.0213533,3514.63
0.0215608,3533.92
0.0216541,3557.53
0.021591,3580.24
0.0217857,3597.91
0.0220366,3624.74
0.0221382,3646.81
0.0223587,3665.93
0.0226133,3691.76
0.0226867,3710.96
0.0227481,3735.36
0.0231822,3756.73
0.0230526,3778.07
0.0230506,3804.13
0.0236306,3825.45
0.0236024,3847.21
0.0237441,3873.6
0.0240067,3895.17
0.0240181,3916.95
0.0241019,3941.17
0.0244618,3964.29
0.0245719,3987.69
0.0246532,4013.11
0.0249997,4035.06
0.0252317,4060.06
0.0252413,4085.18
0.0254138,4106.52
0.025525,4134.28
0.0258061,4159.22
0.0260761,4180.93
0.0263268,4208.36
0.0263204,4234.67
0.0264897,4254.95
0.0265462,4280.91
0.0268792,4308.81
0.0271046,4331.65
0.0272809,4358.27
0.0273544,4386.07
0.0276542,4408.3
0.0275547,4432.47
0.0280497,4461.6
0.0280312,4483.98
0.0283499,4509.52
0.0283925,4535.82
0.0288504,4563.25
0.0290068,4586.81
0.0289515,4613
0.0292806,4640.3
0.0293722,4662.99
0.0296555,4689.72
0.0299407,4716.81
0.0297698,4744.79
0.030258,4770.66
0.0304234,4796.83
0.0307415,4824.52
0.0308491,4849.99
0.0308804,4875.38
0.030973,4902.28
0.0314202,4931.99
0.0315651,4956.08
0.0317287,4981.99
0.0318151,5012.18
0.0323216,5041.13
0.0321151,5065.38
0.0324971,5091.86
0.0327457,5119.66
0.032918,5147.8
0.0331693,5177.75
0.0332084,5202.43
0.0336671,5229.9
0.033862,5261.76
0.0339307,5287.85
0.0341705,5314.48
0.0345298,5343.21
0.0345493,5372.3
0.0349783,5403.11
0.035135,5431.32
0.0354693,5456.37
0.035703,5488.3
0.0357191,5519.33
0.0360673,5548.28
0.0362216,5576.2
0.0365923,5606.27
0.0366446,5636.66
0.0370554,5670.18
0.037128,5697.47
0.0376506,5726.52
0.0375855,5754.19
0.0376434,5782.43
0.0382119,5816.88
0.0384213,5848.01
0.0385212,5875.75
0.0389013,5905.55
0.0390876,5933.04
0.0394593,5963.23
0.0397919,5997.61
0.0398612,6028.84
0.0398024,6057.19
0.0402595,6086.81
0.0406298,6115.77
0.0406608,6147.17
0.0409961,6179.04
0.0413401,6214.03
0.0414289,6245.01
0.041655,6273.12
0.0421876,6304.01
0.0425801,6336
0.0425017,6366.19
0.0428284,6401.66
0.0430638,6432.61
0.0435508,6464.47
0.0434696,6494.4
0.0439847,6523.7
0.0442844,6556.7
0.0447926,6587.31
0.0449755,6622.31
0.0454899,6653.92
0.0455073,6687.49
0.0458683,6719.47
0.0461199,6751.1
0.0463243,6781.68
0.0466121,6814.5
0.0468429,6848.02
0.0472697,6882.07
0.0475121,6917.15
0.0478634,6950.81
0.0483877,6984.25
0.0484839,7015.98
0.0487192,7049.49
0.0491201,7081.76
0.0492575,7114.99
0.0497849,7146.46
0.0501162,7177.52
0.0504524,7212.25
0.0507656,7242.9
0.0512311,7281.12
0.0515097,7313.67
0.0522638,7347.82
0.0520305,7379.06
0.0521963,7414.61
0.0527193,7450.07
0.0531488,7483.9
0.0535179,7518.98
0.0540334,7551.58
0.0541143,7584.07
0.0542769,7615.83
0.0551067,7651.63
0.0552286,7687.13
0.0557195,7720.06
0.0558272,7754.6
0.0562793,7786.35
0.0566683,7822.02
0.0569564,7857.02
0.0574852,7892.59
0.057899,7927.6
0.0581086,7960.84
0.0584917,7998.21
0.0588558,8029.51
0.0594201,8067.85
0.0597943,8101.83
0.0601541,8138.76
0.0603991,8174.01
0.0611946,8209.53
0.0616284,8246.91
0.0619638,8280.14
0.0623622,8316.95
0.0625028,8351.48
0.0629664,8386.49
0.0635185,8420.88
0.0638595,8458.03
0.0645629,8492.97
0.0647634,8528.17
0.0653698,8562.93
0.0659621,8599.01
0.0665232,8633.94
0.0665573,8670.49
0.0672258,8708.28
0.0675762,8744.16
0.0680957,8781.125
0.0685471,8817
0.0690247,8854.51
0.0694657,8890.97
0.0702187,8927.9
0.0705064,8963.09
0.0709284,8997.5
0.0713138,9033.64
0.0720897,9069.49
0.0724818,9103.58
0.0732141,9138.72
0.0734365,9173.56
0.0738766,9207.42
0.0744965,9246.36
0.0750818,9281.13
0.0755427,9317.37
0.0762593,9355.21
0.0768054,9392.19
0.0772656,9429.61
0.0777618,9463.9
0.0784859,9500.92
0.0791435,9535.82
0.0794555,9571.65
0.0802472,9604.77
0.0808538,9640.68
0.0813032,9677.01
0.0820459,9711.92
0.0825052,9749.44
0.083304,9786.97
0.0839358,9822.68
0.0848216,9857.39
0.0852689,9893.14
0.0858469,9927.42
0.0863249,9963.22
0.0870317,10000.1
0.0880456,10038
0.088741,10074.7
0.0890904,10112.2
0.0899719,10146.3
0.090884,10180.2
0.0913643,10214.2
0.0921237,10250.5
0.0928869,10287.1
0.0937802,10324.6
0.0943884,10361.8
0.0949847,10395.2
0.095778,10427.9
0.0968654,10462.9
0.0975973,10500.2
0.0983593,10537.6
0.0993894,10574.2
0.100249,10607.3
0.10082,10641
0.101918,10673.3
0.103873,10840.9
0.107384,10997.9
0.111051,11102.2
0.114097,11196.8
0.11754,11289.4
0.120951,11384.5
0.124364,11466
0.128053,11551.2
0.131642,11635.7
0.135612,11712.3
0.139734,11791.1
0.14434,11868.4
0.148338,11937.4
0.153014,12011.7
0.158207,12080.6
0.163194,12143.4
0.16891,12206.5
0.174653,12267.3
0.180594,12319.1
0.186864,12373.6
0.193556,12425.5
0.200174,12470
0.207176,12513.6
0.214922,12557.7
0.222828,12594
0.230848,12632.8
0.239209,12668.1
0.247859,12700
0.257018,12726.5
0.266078,12756.3
0.275635,12781.2
0.285448,12803.8
0.29552,12827.7
0.305927,12844
0.316423,12866.4
0.327338,12884.8
0.338183,12899.4
0.349299,12914.3
0.360734,12926.5
0.372291,12940.7
0.38404,12951.8
0.395651,12966.8
0.407282,12974.6
0.419493,12987.1
0.431551,12997.2
0.444214,13005.6
0.456448,13015
0.468957,13024.1
0.481514,13032.5
0.49436,13040.6
0.507016,13046.5
0.519911,13054
0.532619,13062.3
0.546064,13071.4
0.55897,13077.2
0.572228,13080.9
0.585393,13087.1
0.59866,13091.9
0.611852,13099
0.624635,13103.5
0.638395,13107.3
0.651541,13113.9
0.664932,13118.3
0.678335,13126.4
0.692119,13129.4
0.705563,13135.1
0.719323,13138.5
0.732682,13140.5
0.746487,13145.8
0.760132,13151.8
0.77412,13158
0.787678,13160.4
0.801738,13163.5
0.815457,13168.6
0.829203,13170.2
0.843087,13176.6
0.856991,13178.3
0.870499,13179.4
0.884577,13185.6
0.898421,13189.5
0.912675,13193.2
0.926637,13196.1
0.940491,13199.4
0.9545,13201.1
0.968455,13204.8
0.982994,13210.5
0.996807,13210.4
1.01094,13215.6
1.02506,13217.9
1.03915,13219.1
1.05349,13224.4
1.06776,13227.4
1.08212,13227.2
1.09651,13228.6
1.11043,13232
1.12465,13233.6
1.13903,13237
1.15352,13242.2
1.16748,13240.5
1.18173,13243.4
1.19637,13249.4
1.21067,13248.2
1.22508,13252.3
1.23942,13255
1.25577,13253.1
1.27691,13258
1.2981,13260.8
1.31925,13260.7
1.34049,13263.9
1.36163,13266.7
1.38282,13266.8
1.40392,13270.1
1.42511,13272.7
1.44626,13271.5
1.46745,13273.5
1.48864,13276.2
1.50974,13273.9
1.53093,13280.1
1.55217,13282.2
1.57326,13281.2
1.59446,13282.1
1.6156,13287.1
1.6367,13286
1.65789,13289.1
1.67908,13292.4
1.70027,13289.3
1.72146,13291.4
1.74261,13297.1
1.76375,13295.5
1.78495,13295.9
1.80614,13296.8
1.82724,13295.5
1.84843,13297
1.86962,13302.6
1.89072,13301.7
1.912,13303.8
1.93315,13305.8
1.95429,13303.9
1.97544,13306.1
1.99663,13311
2.01773,13308.1
2.03892,13308.8
2.06011,13311.4
2.08125,13312
2.10249,13312.6
2.12364,13315.9
2.14473,13314.8
2.16593,13312.8
2.18712,13317.6
2.20821,13316.3
2.22941,13319.6
2.25064,13320.1
2.27174,13317.8
2.29298,13319.4
2.31413,13322.1
2.33522,13322.1
2.35641,13322.9
2.37765,13325.2
2.3987,13324
2.4199,13323.1
2.44109,13327.8
2.46223,13325.7
2.48342,13324.7
2.50461,13327.7
2.52571,13329.2
2.54695,13328.5
2.56814,13330.2
2.58919,13328.6
2.61043,13330.9
2.63162,13331.2
2.65268,13330.6
2.67396,13330.9
2.69515,13334.9
2.71625,13332.4
2.73744,13331.7
2.75863,13337.1
2.77973,13336.7
2.80097,13335.9
2.82211,13336.4
2.84321,13335.1
2.86445,13336.8
2.88564,13337.7
2.90674,13340.7
2.92798,13337.3
2.94917,13339.8
2.97027,13337.4
2.99146,13338.6
3.01265,13339.3
3.03375,13339.3
3.05499,13339.6
3.07618,13340.5
3.09728,13341.4
3.11842,13342.2
3.13966,13342.9
3.16071,13343.2
3.18195,13341.1
3.20309,13340.4
3.22424,13342.7
3.24547,13343.2
3.26667,13344.9
3.28776,13345.2
3.309,13342.7
3.33015,13344.9
3.35125,13344.2
3.37248,13346.8
3.39368,13343.8
3.41477,13343.7
3.43601,13344
3.45716,13345.8
3.4783,13346.1
3.49945,13346.4
3.52064,13345.7
3.54174,13346.3
3.56297,13348.7
3.58412,13347.4
3.60526,13347.5
3.6265,13346.9
3.64769,13342.9
3.66874,13348.3
3.68998,13348.9
3.71113,13346.4
3.73227,13348.1
3.75346,13345.3
3.77461,13346.3
3.79571,13346.9
3.81694,13346.8
3.83809,13346.8
3.85923,13346.3
3.88038,13347.2
3.90157,13346.6
3.92267,13348.7
3.94391,13349.2
3.96505,13347.2
3.9862,13345
4.00739,13346.5
4.02858,13347
4.04972,13348.9
4.07091,13345.9
4.09211,13345.8
4.11325,13343.8
4.1344,13347.1
4.15563,13344.7
4.17669,13346
4.19792,13346.6
4.21911,13342.1
4.24021,13345.2
4.26136,13345.9
4.2826,13346.4
4.30369,13346.5
4.32493,13346.9
4.34603,13345.7
4.36722,13344.4
4.38837,13347.3
4.4096,13342.3
4.43075,13345.2
4.45194,13346.9
4.47309,13343.1
4.49423,13344.7
4.51542,13343.7
4.53657,13342.5
4.55771,13343.2
4.57895,13344
4.60005,13342.4
4.62124,13342.1
4.64243,13345
4.66358,13341.7
4.68467,13343.7
4.70591,13346.4
4.72701,13343.3
4.7482,13341.7
4.76944,13344.4
4.79058,13341.8
4.81168,13341.2
4.83292,13343.8
4.85406,13340.1
4.87526,13337.9
4.8964,13343
4.91755,13340.6
4.93869,13339
4.95993,13341.7
4.98107,13337.7
5.00226,13338
5.02341,13340.8
5.04455,13340.1
5.0657,13338.1
5.08698,13340
5.10804,13339.1
5.12923,13336.9
5.15042,13338.1
5.17156,13336.1
5.19271,13334.2
5.21399,13337.8
5.23509,13333.2
5.25623,13334.8
5.27747,13337
5.29862,13333.6
5.31972,13331.6
5.34095,13333.7
5.36205,13333.8
5.38324,13332.9
5.40439,13334.3
5.42558,13332.8
5.44672,13329
5.46796,13333.6
5.48901,13331.2
5.51025,13330.3
5.53144,13330.8
5.55254,13328.2
5.57373,13328.875
5.59497,13329.3
5.61607,13329.6
5.63726,13325.3
5.65845,13326.5
5.6796,13325.8
5.70074,13323.8
5.72193,13327.3
5.74308,13326.2
5.76427,13322.1
5.78551,13325.3
5.80661,13323.3
5.8277,13323.7
5.84899,13323.7
5.87009,13322.7
5.89128,13319.4
5.91247,13319
5.93357,13321.6
5.95471,13318
5.97595,13319.9
5.99709,13318.5
6.01824,13315.3
6.03943,13317.9
6.06053,13318.1
6.08172,13317.5
6.10296,13314.9
6.12406,13316.6
6.14525,13316
6.16644,13315
6.18758,13316
6.20873,13313
6.22997,13312.1
6.25107,13313.5
6.27221,13311.4
6.2934,13311.8
6.31455,13310.1
6.33574,13309.6
6.35698,13309.4
6.37807,13311.3
6.39922,13307.7
6.42046,13307.7
6.44156,13308.3
6.46275,13305.6
6.48394,13305.3
6.50504,13306.6
6.52623,13304
6.54747,13303.8
6.56861,13303.8
6.58976,13302.2
6.61095,13301.6
6.63209,13303.4
6.65324,13302.5
6.67447,13298
6.69562,13300.7
6.71676,13299.4
6.73796,13297.4
6.7591,13299.2
6.78025,13295.1
6.80148,13295.2
6.82263,13294.5
6.84373,13293.9
6.86492,13292.6
6.88606,13292.9
6.90725,13292.9
6.92849,13290.6
6.94964,13292.8
6.97078,13291
6.99197,13288.9
7.01307,13289.4
7.03426,13287.3
7.05545,13286.8
7.0766,13287
7.09774,13286.9
7.11893,13283.6
7.14017,13283.7
7.16127,13283.8
7.18246,13279.2
7.20361,13281.7
7.22475,13280.3
7.2459,13278.1
7.26709,13278.9
7.28823,13279.2
7.30942,13276.6
7.33062,13278.5
7.35176,13276.6
7.37295,13273.4
7.3941,13273.9
7.41524,13275.5
7.43643,13271.4
7.45758,13271
7.47877,13271.5
7.49996,13268.5
7.52115,13269.8
7.5422,13268.6
7.56344,13266.6
7.58459,13265.7
7.60573,13265.9
7.62688,13264.8
7.64807,13264.4
7.66921,13264.8
7.6904,13259.2
7.7116,13261.9
7.73274,13262.5
7.75389,13259.5
7.77508,13259.7
7.79622,13257.9
7.81741,13255.6
7.83856,13256.7
7.85975,13254.8
7.88089,13255.2
7.90213,13252.2
7.92323,13252.3
7.94447,13249.5
7.96561,13250.1
7.98671,13249.8
8.0079,13248.2
8.02909,13247.3
8.05024,13246.3
8.07143,13243.8
8.09262,13245.9
8.11377,13244.7
8.13491,13243
8.1561,13240.3
8.17725,13241.1
8.19839,13238.9
8.21954,13239.75
8.24073,13237.4
8.26192,13234.1
8.28316,13233.2
8.30426,13235.5
8.32545,13231.9
8.34659,13231.3
8.36778,13228.8
8.38888,13230.6
8.41017,13227.5
8.43126,13229.7
8.45241,13225.5
8.4736,13225.9
8.49479,13225.7
8.51594,13223.9
8.53713,13222.9
8.55827,13222.7
8.57942,13220.3
8.60061,13218.1
8.6218,13217.2
8.64294,13216.1
8.66418,13214.1
8.68528,13214.1
8.70647,13212.1
8.72762,13209.4
8.74881,13210.6
8.76991,13209.5
8.79115,13208.6
8.81229,13209.7
8.83343,13206.1
8.85463,13205.3
8.87582,13204.2
8.89692,13206
8.91811,13199.1
8.9393,13201.3
8.96044,13199.5
8.98164,13197
9.00278,13196.8
9.02392,13196.4
9.04516,13194.6
9.06631,13192.3
9.0875,13190.9
9.1086,13190.6
9.12983,13187.2
9.15093,13189.2
9.17217,13184.7
9.19332,13184.2
9.21446,13184.6
9.2356,13182.3
9.2568,13181.4
9.27794,13182.4
9.29913,13178.2
9.32028,13174.8
9.34142,13175.9
9.36257,13174.8
9.38381,13172.9
9.4049,13173.1
9.42614,13170.4
9.44729,13166.2
9.46843,13169.2
9.48958,13166.5
9.51086,13164.9
9.53196,13163.6
9.55315,13159.1
9.57425,13159.5
9.59544,13161
9.61658,13158.9
9.63782,13153.6
9.65897,13155.9
9.68011,13155
9.7013,13150.5
9.72245,13151.8
9.74359,13148.3
9.76478,13144.4
9.78593,13146.1
9.80712,13144.6
9.82827,13141.8
9.8495,13142.4
9.8706,13138.5
9.89184,13135.4
9.91294,13137
9.93413,13135.9
9.95527,13131.9
9.97647,13132.8
9.99761,13130.4
10.0188,13126.7
10.0399,13130.6
10.0611,13126.7
10.0823,13123.9
10.1035,13121.7
10.1246,13121.5
10.1458,13117.5
10.167,13118.7
10.1881,13116.9
10.2093,13110.4
10.2305,13111
10.2516,13111.5
10.2728,13107.7
10.294,13108.6
10.3152,13106.2
10.3363,13100.1
10.3575,13100
10.3786,13100.9
10.3998,13095.7
10.421,13096.4
10.4421,13095
10.4633,13090.8
10.4845,13091.2
10.5056,13089.3
10.5268,13085.3
10.548,13085
10.5692,13080.4
10.5903,13079.6
10.6115,13078.4
10.6326,13078.1
10.6538,13073.7
10.675,13070.7
10.6961,13072
10.7173,13066.5
10.7385,13065.7
10.7596,13067.4
10.7808,13061.1
10.802,13060
10.8231,13059.2
10.8442,13055.8
10.8655,13054.1
10.8866,13051.6
10.9078,13047.2
10.929,13046.5
10.9502,13045.1
10.9712,13039.7
10.9925,13038.6
11.0136,13039.1
11.0348,13032.5
11.056,13031.7
11.0772,13031.6
11.0983,13026.7
11.1195,13024.4
11.1406,13021.5
11.1618,13020.3
11.183,13018.3
11.2041,13017.2
11.2253,13011.8
11.2465,13009.8
11.2676,13009.1
11.2888,13004.2
11.31,13002.1
11.3312,12999
11.3523,12995.3
11.3736,12992.9
11.3947,12990.9
11.4158,12988.9
11.437,12984.3
11.4582,12982.9
11.4793,12978.7
11.5005,12976.1
11.5216,12973.5
11.5428,12969.7
11.564,12970.2
11.5851,12963.9
11.6063,12963.3
11.6275,12959.3
11.6486,12957
11.6698,12953.6
11.6911,12947.1
11.7122,12944.3
11.7333,12941.4
11.7545,12938.1
11.7757,12936.9
11.7969,12932.6
11.818,12927.1
11.8392,12922.8
11.8603,12922.8
11.8815,12916.4
11.9026,12912.9
11.9238,12909.1
11.945,12906.3
11.9661,12904.2
11.9873,12901.6
12.0085,12895.5
12.0297,12888.8
12.0508,12886.5
12.072,12881.5
12.0931,12878
12.1143,12875.5
12.1355,12871
12.1567,12864.1
12.1779,12862.9
12.199,12856.1
12.2202,12851.7
12.2413,12850.1
12.2625,12842.3
12.2837,12837.8
12.3048,12833.4
12.326,12830.8
12.3472,12825.5
12.3684,12820.4
12.3895,12815.3
12.4107,12809.6
12.4318,12807.1
12.4531,12799.8
12.4742,12792.3
12.4954,12788.1
12.5165,12783.2
12.5377,12776.9
12.5589,12774
12.5801,12766.4
12.6012,12757.9
12.6224,12753.6
12.6435,12749.9
12.6647,12740.6
12.6858,12738.7
12.7071,12732.5
12.7282,12721.6
12.7494,12720.1
12.7705,12713.8
12.7917,12704.5
12.8129,12698.8
12.8341,12691.5
12.8552,12682.9
12.8763,12678.1
12.8975,12673.4
12.9187,12660.9
12.9399,12658.1
12.9611,12649
12.9822,12640.5
13.0034,12635.1
13.0245,12626.4
13.0457,12616.5
13.0669,12607.8
13.088,12604.3
13.1092,12594
13.1304,12588.3
13.1515,12580.6
13.1727,12565.6
13.1939,12559.8
13.2151,12553.9
13.2362,12541.7
13.2574,12535.1
13.2785,12525.1
13.2997,12513.5
13.3209,12507.3
13.3421,12497.5
13.3632,12487.5
13.3844,12478.4
13.4056,12468.3
13.4267,12454.1
13.4479,12448.1
13.4691,12439.3
13.4902,12423.9
13.5114,12416.3
13.5326,12405.8
13.5538,12391.5
13.5749,12383.2
13.5961,12372.5
13.6172,12358
13.6384,12345.6
13.6596,12339.2
13.6807,12322.625
13.702,12314.5
13.7231,12303.3
13.7442,12287.2
13.7654,12275.6
13.7866,12266.4
13.8077,12250.4
13.8289,12239.1
13.8501,12226.1
13.8712,12211.1
13.8924,12198.7
13.9136,12188.4
13.9347,12170.5
13.9559,12156
13.9771,12143.3
13.9982,12128
14.0195,12115.8
14.0406,12102.9
14.0617,12082.6
14.083,12069.6
14.1041,12057.7
14.1252,12039.9
14.1465,12025.2
14.1676,12010.9
14.1887,11991.1
14.2099,11976.5
14.2311,11963.6
14.2522,11941.6
14.2735,11927.6
14.2946,11913.4
14.3158,11892.6
14.3369,11877
14.3581,11860
14.3792,11842.1
14.4005,11819.8
14.4216,11806.8
14.4427,11787
14.464,11769.9
14.4852,11752
14.5063,11727.5
14.5275,11710
14.5487,11694.3
14.5698,11671.1
14.591,11654.6
14.6122,11631.1
14.6333,11610.375
14.6545,11590.2
14.6757,11570.8
14.6968,11547.1
14.718,11523.4
14.7392,11504.5
14.7603,11479.9
14.7816,11459.5
14.8027,11437.9
14.8238,11411.6
14.845,11389.7
14.8663,11365.5
14.8873,11341.3
14.9086,11317.1
14.9297,11294
14.9508,11268.5
14.9721,11241.1
14.9932,11216.7
15.0143,11190.7
15.0356,11163.7
15.0568,11138.7
15.0779,11109.6
15.0991,11081.9
15.1203,11054.2
15.1414,11026.9
15.1626,10998.4
15.1838,10967.7
15.2049,10939.4
15.2262,10908.7
15.2473,10879.7
15.2684,10848.6
15.2896,10816.5
15.3108,10786.3
15.3319,10752.8
15.3532,10721.2
15.3744,10689.2
15.3954,10654.1
15.4167,10619.8
15.4379,10584.8
15.459,10550.3
15.4802,10514.5
15.5014,10477.7
15.5225,10441.2
15.5437,10401.1
15.5649,10363.9
15.586,10324.2
15.6072,10286.2
15.6284,10244.4
15.6495,10204
15.6708,10164
15.6919,10119.9
15.713,10077.1
15.7343,10032
15.7554,9986.55
15.7765,9940.26
15.7978,9893.58
15.819,9847.08
15.8401,9797.32
15.8613,9746.03
15.8825,9693.25
15.9036,9642.32
15.9248,9588.56
15.946,9532.99
15.9671,9479.04
15.9884,9420.83
16.0095,9361.16
16.0306,9303.96
16.0519,9241.73
16.073,9178.05
16.0942,9110.67
16.1154,9043.7
16.1366,8974.23
16.1577,8903.16
16.1789,8830.14
16.2001,8753.18
16.2213,8676.39
16.2425,8594.46
16.2636,8511.34
16.2847,8426.83
16.306,8335.62
16.3271,8240.48
16.3483,8143.24
16.3695,8045.35
16.3907,7939.27
16.4118,7826.3
16.433,7673.11
16.4472,6961.26