File: data/PrimaryData/Steel_1018/Tensile_test_6.csv
Displacement (mm),Load (N)
-0.00109404,-9.30708
-0.00113545,-9.66294
-0.0005822,-4.33039
-0.000398245,-4.07632
-0.00111345,-8.1986
0.000189593,-3.95267
0.00127921,2.66509
-0.000951214,-8.01895
-0.000159553,-7.16786
0.00085417,-2.4979
0.000778627,-0.802782
0.000992109,-1.07023
0.00133864,4.71306
-0.000851581,-7.75194
0.000310718,-4.26596
0.000543066,0.335391
0.000801897,4.32832
-0.00143002,-4.32332
0.00120347,6.01773
0.000923711,9.03766
0.00128621,11.0928
0.000443972,9.70858
0.00119405,10.1481
-0.00107814,5.52462
0.000313077,9.5685
-0.00057666,12.2001
0.000755543,15.6848
-0.000435101,12.5539
-0.000671186,13.8604
-7.19789e-05,21.9215
0.0011215,28.9949
0.000990951,26.9448
-0.00074243,23.8313
-0.000887032,24.2344
-0.000837753,27.411
0.000342501,36.2212
0.0016914,43.5306
0.00144974,46.8192
-0.000513844,40.4933
0.0012237,54.7651
-0.000264304,48.9416
-0.000782546,53.7456
-0.00022442,62.5709
0.000356474,69.1597
0.000455537,76.3079
0.00154478,84.9523
0.00177444,90.2222
0.000529963,89.7286
0.00100052,103.452
0.00162059,109.024
0.000638527,111.592
0.00176229,122.502
0.00192164,131.132
0.000763444,134.568
0.00117747,148.167
0.00227528,155.764
-2.84757e-05,157.081
0.00223106,172.291
0.00254422,182.154
0.00140572,188.667
0.000589531,192.56
0.00251372,212.665
0.00175951,219.45
0.000290286,223.285
0.00234654,242.375
0.00303558,257.492
0.00282793,269.61
0.00248839,279.815
0.000622957,281.995
0.00289644,300.25
0.000753127,301.439
0.00343888,318.799
0.000686325,316.371
0.0032972,333.86
0.00204225,330.526
0.000999067,332.598
0.00301183,345.396
0.00253322,341.57
0.00164122,342.852
0.00343081,349.077
0.00133394,341.431
0.000912014,335.932
0.0022382,337.755
0.00332141,342.494
0.00205941,338.452
0.00117974,334.534
0.00175355,335.016
0.00313133,347.422
0.00163495,345.977
0.00262877,351.74
0.00238875,360.509
0.00111104,356.603
0.00141063,359.98
0.00192608,365.844
0.00330217,377.292
0.00161604,371.89
0.00380313,387.578
0.00263855,391.024
0.00139666,390.77
0.00373675,407.659
0.00175844,405.699
0.00300618,411.295
0.00378918,421.959
0.00299289,423.777
0.00149259,420.29
0.00242864,426.685
0.00300296,436.832
0.00336176,449.135
0.0016269,447.187
0.00336774,458.076
0.00360791,464.043
0.00184026,460.226
0.0041231,474.658
0.00168156,471.722
0.00433694,490.611
0.00362968,490.277
0.00199865,488.648
0.00414556,502.126
0.00181276,495.463
0.00326381,508.835
0.00314226,510.979
0.00351313,526.774
0.00317227,527.923
0.00321254,539.698
0.0020863,536.458
0.00320447,549.834
0.0040992,554.044
0.00248458,559.101
0.0046283,575.603
0.00316973,580.413
0.00295414,581.274
0.0043846,591.302
0.0035693,596.442
0.00490697,608.405
0.00449682,613.043
0.00499989,625.182
0.00484933,632.34
0.0050674,635.266
0.00417015,636.494
0.00388365,642.752
0.00285415,649.567
0.0030694,660.039
0.00341874,669.114
0.00421714,678.858
0.00527006,687.36
0.00365974,687.17
0.00288176,695.932
0.00431195,710.788
0.00517935,716.504
0.0029866,715.169
0.00555454,732.746
0.00413712,734.965
0.00345691,743.489
0.00304465,750.571
0.00402794,761.03
0.00578261,773.379
0.00611394,783.961
0.00538289,793.563
0.00600021,802.102
0.00616021,806.989
0.00451977,804.628
0.00386457,815.12
0.00632378,835.009
0.00479635,833.827
0.00564482,845.11
0.00576663,851.265
0.00516217,859.413
0.00457387,867.404
0.00425589,871.113
0.00406096,877.547
0.00435857,889.432
0.00374729,897.636
0.00509686,909.761
0.005168,916.093
0.00445025,922.754
0.0054231,938.654
0.00574118,951.185
0.00513559,954.583
0.00493681,958.285
0.00431637,964.632
0.00570824,980.255
0.00675467,993.284
0.0066769,999.215
0.00656161,1005.95
0.00691109,1021.78
0.00720759,1033.26
0.00527121,1032.51
0.00504772,1037.55
0.00511906,1050.91
0.00622993,1063.07
0.00558417,1066.55
0.00490479,1072.21
0.00481251,1087.48
0.0057167,1102.77
0.00638506,1111.81
0.00636208,1120.98
0.00758769,1137.63
0.00532763,1138.3
0.00581135,1144.76
0.0076668,1164.7
0.00786787,1177.92
0.00773632,1187
0.00789143,1192.95
0.00758648,1207.76
0.00611292,1214.2
0.00594349,1219.93
0.00652824,1230.76
0.0076239,1246.73
0.00722837,1253.82
0.00571166,1256.59
0.00586175,1270.56
0.00710494,1289.85
0.00849764,1301.43
0.00603479,1299.91
0.00861193,1324.42
0.00616257,1323.5
0.00829502,1342.11
0.00875412,1356.83
0.00715374,1361.46
0.00658673,1371.54
0.00886455,1388.37
0.00670169,1393.51
0.00639075,1401.32
0.00796884,1420.81
0.00834747,1437.74
0.00739346,1445.32
0.00678037,1449.42
0.00694557,1463.63
0.0068347,1473.5
0.00690187,1480.87
0.00793816,1499.52
0.0088847,1517.12
0.00955065,1530.19
0.0091733,1541.64
0.0075211,1546.88
0.00963197,1566.49
0.00870988,1577.73
0.00806505,1589.18
0.00751817,1593.23
0.00976938,1616.38
0.00984775,1634.55
0.0101946,1641.84
0.0103341,1657.72
0.00776441,1661.03
0.00936995,1674.81
0.00968339,1692.35
0.00993417,1707.52
0.00972791,1720.65
0.00819203,1729.53
0.00886279,1740.66
0.010818,1760.83
0.00855284,1770.88
0.00961239,1783.39
0.00997596,1797.39
0.0108335,1819.25
0.0113082,1831.56
0.00881702,1838.16
0.0101443,1857.44
0.0117246,1876.38
0.00927563,1886.99
0.0110966,1902.85
0.0106688,1916.53
0.0099088,1927.92
0.0117897,1947.48
0.0106953,1961.06
0.0104773,1972.68
0.0106904,1985.44
0.0108632,2004.5
0.0100087,2010.06
0.0103565,2027.59
0.010432,2042.81
0.0123241,2064.31
0.0110571,2078.82
0.0105483,2087.13
0.0110406,2106.08
0.0128013,2127.52
0.0129097,2138.52
0.0115171,2153.62
0.0118999,2164.5
0.0109724,2178.4
0.0108913,2193.87
0.0115039,2208.99
0.0111513,2225.5
0.0112424,2237.38
0.0122273,2261.64
0.0128054,2279.88
0.0123065,2292.31
0.013463,2314.37
0.0138341,2328.4
0.0142276,2347.92
0.0139153,2358.22
0.0133612,2376.23
0.0127808,2385.47
0.012075,2400.59
0.0124988,2420.17
0.0126408,2435.85
0.0132555,2459.27
0.0130596,2470.81
0.0130042,2494.12
0.0136717,2510.6
0.0145546,2532.31
0.0143951,2545.19
0.0153448,2569.32
0.0155358,2586.38
0.0158914,2603.34
0.0149809,2620.46
0.0134799,2626.86
0.0137943,2645.92
0.014659,2664.52
0.0162288,2692.34
0.0162915,2708.31
0.0165656,2730.41
0.0145569,2737.08
0.0144218,2755.85
0.0145592,2772.32
0.0156543,2800.6
0.0158147,2814.63
0.0148558,2831
0.0152314,2844.66
0.0168336,2874.12
0.0177176,2894.33
0.0180692,2915.44
0.0171133,2928.24
0.016534,2949.36
0.0161648,2961.92
0.0164836,2982.64
0.0174766,3001.28
0.0184876,3030.85
0.0189129,3046.99
0.0189603,3070.82
0.019117,3084.23
0.0192566,3110.4
0.0181812,3119.69
0.0171908,3173.73
0.0183406,3179.98
0.0194865,3197.23
0.0189486,3212.96
0.017799,3227.63
0.0193359,3257.94
0.0192304,3271.16
0.0182942,3292.49
0.0202863,3319.79
0.0205712,3341.14
0.0193986,3352.32
0.0186675,3375.73
0.0187846,3398.74
0.0196938,3421.19
0.0200516,3443.39
0.0215624,3466.88
0.0203484,3483.29
0.0192709,3497.86
0.0202205,3526.67
0.0207988,3550.2
0.0220495,3575.44
0.0213295,3589.89
0.0212355,3609.12
0.0207232,3634.11
0.0206462,3650.71
0.0227788,3682.2
0.022985,3702.53
0.022112,3721.48
0.0212509,3742.4
0.0217459,3765.89
0.0216139,3788.55
0.022243,3811.22
0.0240723,3843.64
0.0238198,3865.11
0.0225831,3880.46
0.0223135,3904.45
0.0231182,3923.91
0.0250207,3957.94
0.0240727,3979.74
0.0229264,3991.98
0.0252819,4029.52
0.0244044,4044.06
0.0240292,4064.28
0.0238094,4090.09
0.0258934,4113.95
0.0257248,4142.06
0.0242284,4155.02
0.0261684,4183.95
0.0267251,4214.86
0.0252048,4230.66
0.0246905,4250.37
0.0270454,4280.98
0.0276335,4304.7
0.0275398,4333.02
0.0259951,4351.75
0.0261747,4367.73
0.0280182,4407.28
0.0269173,4421.22
0.0278442,4448
0.028063,4476.51
0.0291245,4504.65
0.0291509,4528.68
0.0279807,4552.25
0.0294679,4577.99
0.0290743,4601.53
0.0277949,4622.54
0.0302715,4655.99
0.0307386,4680.63
0.0307468,4706.02
0.0301338,4726.95
0.0286486,4745.44
0.0308151,4782.11
0.0315776,4806.2
0.0297169,4821.81
0.0295567,4847.74
0.0319294,4884.71
0.0307394,4900.18
0.0302381,4925.44
0.0306119,4954.59
0.0309812,4977.96
0.0326988,5009.33
0.032411,5035.64
0.0317857,5053.76
0.0336482,5090.54
0.0321081,5109.81
0.0319112,5137.47
0.033396,5161.44
0.033183,5192.6
0.033417,5219.16
0.0339573,5248.53
0.0334058,5267.33
0.0350232,5302.41
0.0357348,5338.04
0.0345042,5351.2
0.0354116,5383.85
0.036386,5411.13
0.0343481,5430.38
0.036674,5466.61
0.0368472,5493.64
0.034934,5512.49
0.037725,5551.17
0.0356293,5567.03
0.037624,5598.85
0.0370194,5628.55
0.0376351,5657.18
0.039166,5689.38
0.0378339,5712.42
0.0372299,5732.66
0.0380928,5768.53
0.0381934,5791.79
0.0401246,5826.68
0.0382482,5847.21
0.0396292,5879.13
0.040186,5913.44
0.0400075,5931.06
0.0395269,5960.57
0.0414576,5993.65
0.040784,6020.3
0.0404364,6050.19
0.0402304,6070.45
0.0412389,6101.83
0.0432728,6141.59
0.041421,6163.01
0.0421236,6191.13
0.0433166,6219.68
0.0442382,6253.93
0.0444155,6283.82
0.0449466,6317.07
0.0450633,6347.8
0.0434519,6368.89
0.0433251,6392.77
0.0445474,6425.28
0.0447263,6455.65
0.0448461,6488.86
0.0450712,6517.64
0.0466748,6551.31
0.0475714,6582.85
0.047471,6611.06
0.0460675,6634.66
0.0462905,6666.11
0.0467132,6697.37
0.0470886,6728.08
0.0487169,6762
0.0499934,6793.12
0.0495071,6819.73
0.0500307,6851.84
0.0490059,6878.31
0.0490168,6911.25
0.0491702,6939.2
0.0495689,6968.37
0.0514959,7003.71
0.0511522,7030.73
0.0506431,7064.17
0.0510736,7098.15
0.0513223,7128.88
0.0517505,7162.31
0.0526588,7194.18
0.0540571,7228.24
0.0552825,7261.06
0.0556782,7294.8
0.0557787,7324.79
0.0554911,7354.05
0.0568873,7393.46
0.0552598,7417.02
0.0551523,7445.36
0.0578355,7488.26
0.0559634,7509.16
0.0573658,7544.57
0.0592467,7580.99
0.0575133,7601.98
0.0593681,7643.73
0.0585177,7664.7
0.0606212,7710.74
0.0600516,7734.51
0.0595201,7766.97
0.0620532,7808.92
0.0604821,7831.2
0.0632075,7874.35
0.0610561,7894.43
0.0638287,7936.9
0.062338,7960.56
0.0628564,7988.47
0.0654103,8028.68
0.0650523,8059.2
0.0643705,8082.43
0.0669158,8124.19
0.0656815,8150.37
0.0675994,8185.92
0.0659758,8214.02
0.0687831,8253.83
0.068597,8288.25
0.068193,8314.3
0.067979,8346.1
0.0712619,8389.92
0.0704443,8413.41
0.0706449,8449.7
0.0703189,8478.41
0.0732141,8520.7
0.0738331,8555.63
0.0721201,8576.38
0.0733247,8609.3
0.0756682,8651.88
0.0758232,8684.4
0.07446,8707.66
0.0749301,8736.93
0.0784615,8780.79
0.0775592,8811.38
0.0775303,8837.81
0.078872,8873.36
0.0792001,8903.05
0.0795515,8935.99
0.0815259,8975.61
0.082235,9006.57
0.0823294,9035.47
0.0819517,9064.08
0.0836729,9103.04
0.0836149,9127.02
0.084806,9160.61
0.0850474,9191.92
0.0859123,9223.13
0.0881122,9264.4
0.0897689,9297.46
0.0902896,9326.98
0.0890886,9352.37
0.0900617,9383.29
0.0929515,9426.8
0.0918472,9451.94
0.0936472,9480.58
0.0943598,9516.7
0.0937855,9539.92
0.0975444,9581.53
0.0958405,9599.74
0.0973436,9632.46
0.100157,9668.71
0.0991584,9691.24
0.102139,9729.44
0.100745,9747.28
0.101976,9778.28
0.102748,9806.91
0.104029,9836.32
0.107326,9880.32
0.10638,9900.69
0.107638,9929.99
0.109043,9960.28
0.111021,9991.4
0.110686,10013.5
0.111858,10038
0.112997,10060.9
0.113982,10089.9
0.115404,10118.4
0.118965,10159.7
0.118564,10181.3
0.118996,10201.3
0.121115,10228.6
0.122021,10252.4
0.125066,10284.1
0.126338,10311.7
0.125974,10327.4
0.129495,10360.6
0.12951,10383.3
0.131523,10410.6
0.134248,10444.5
0.134762,10459.1
0.136134,10481.7
0.13928,10507.8
0.13975,10529.2
0.140934,10549.6
0.143643,10669.3
0.148604,10808.6
0.156245,10876.7
0.164135,10940.9
0.170091,10994.6
0.175268,11037.6
0.184244,11090.9
0.190161,11134.2
0.200367,11187.3
0.205991,11214.3
0.21712,11262.1
0.225128,11297.5
0.233014,11323
0.241055,11348.7
0.251451,11379.7
0.262316,11411.6
0.273038,11441.4
0.282505,11462
0.291674,11474.2
0.302696,11495.3
0.313708,11514
0.325189,11526.8
0.337076,11543.1
0.348754,11559.2
0.360451,11570.7
0.373101,11587.1
0.387418,11604.1
0.399989,11618.4
0.411362,11623.4
0.422991,11629.7
0.436264,11639.8
0.449728,11654.6
0.462137,11659.7
0.475273,11663.8
0.489064,11674.8
0.502565,11685.3
0.517226,11695.3
0.530824,11705.5
0.5434,11706.7
0.558116,11717
0.571875,11726
0.585786,11732.7
0.597497,11728.7
0.612016,11739
0.625229,11743
0.639929,11750.2
0.655021,11760.6
0.668729,11765.6
0.681925,11760.3
0.695154,11766.5
0.711007,11781
0.724542,11780.4
0.73701,11781.7
0.753707,11797.9
0.766175,11790.9
0.779473,11789.3
0.793806,11800.8
0.809132,11808.3
0.824362,11813.4
0.83936,11821.6
0.853413,11819
0.867895,11826.6
0.882226,11830
0.896632,11832.9
0.91108,11835.3
0.92441,11834.9
0.938707,11835.5
0.954198,11843.2
0.968307,11852.1
0.982802,11851.4
0.99545,11846.2
1.00941,11849.6
1.02492,11853.8
1.04029,11860.1
1.05473,11862.7
1.06968,11868.8
1.08297,11864.9
1.09704,11868
1.11131,11867.2
1.12574,11871.4
1.14176,11881.8
1.15773,11884.6
1.17141,11877.8
1.18431,11882.4
1.20139,11891.5
1.21451,11884.6
1.23012,11895.3
1.24375,11888.2
1.26207,11896.7
1.28327,11906.1
1.30441,11900.6
1.32556,11895.3
1.34679,11901.6
1.36785,11910.5
1.38904,11910.4
1.41023,11908.1
1.43142,11904.4
1.45256,11914.5
1.4738,11915.9
1.4949,11913.3
1.51605,11920.8
1.53728,11917.7
1.55838,11915.2
1.57953,11917.1
1.60072,11930
1.62186,11923.1
1.64305,11920.8
1.66425,11926.5
1.68544,11929.4
1.70653,11934.3
1.72773,11928.9
1.74887,11939.2
1.77006,11938.4
1.79125,11941
1.81235,11943.9
1.8335,11943.8
1.85478,11939.7
1.87588,11935.9
1.89707,11944.1
1.91831,11944.3
1.93941,11947.6
1.96055,11948.3
1.98174,11952.6
2.00289,11947.7
2.02408,11948.7
2.04527,11949
2.06637,11949.5
2.08756,11950.7
2.1088,11948.1
2.12985,11955.1
2.15109,11959.6
2.17223,11957.8
2.19338,11955.9
2.21457,11949.1
2.23581,11952.3
2.25691,11952.4
2.27805,11955.7
2.29929,11962
2.32034,11958.9
2.34153,11958.4
2.36277,11960.6
2.38387,11960.8
2.40506,11964.6
2.42625,11969.1
2.44744,11970.4
2.46859,11965.2
2.48978,11961.8
2.51088,11967
2.53202,11969.9
2.55326,11971.5
2.5744,11971.6
2.5956,11971.3
2.61679,11971.4
2.63788,11968
2.65903,11969.5
2.68027,11974
2.70141,11976.7
2.72256,11977.3
2.74375,11969.6
2.76489,11967.4
2.78608,11967
2.80728,11968
2.82842,11979.4
2.84957,11983.1
2.87076,11975.1
2.89186,11981.5
2.91305,11980
2.93428,11980.7
2.95538,11983.1
2.97657,11977.3
2.99777,11975.1
3.01896,11972.4
3.04006,11980.4
3.06129,11984.1
3.08239,11983.2
3.10354,11982.8
3.12477,11974.4
3.14592,11976.1
3.16706,11976.5
3.18826,11981.6
3.2094,11987.9
3.23055,11986.8
3.25174,11983.7
3.27288,11984
3.29403,11984.1
3.31522,11980.6
3.33636,11982
3.35755,11986.6
3.37879,11984.2
3.39994,11988.8
3.42103,11984
3.44227,11981.4
3.46342,11984.8
3.48456,11984.8
3.50575,11987.8
3.5269,11991.2
3.54804,11986.6
3.56923,11983.5
3.59047,11989.3
3.61157,11988.8
3.63276,11979
3.65386,11982.4
3.67505,11992.4
3.69624,11981.3
3.71739,11980.5
3.73858,11986.5
3.75977,11990.3
3.78096,11987.6
3.80206,11985.8
3.8233,11977.6
3.84449,11980.4
3.86559,11990.9
3.88673,11989.1
3.90797,11990.3
3.92907,11986.7
3.95026,11977.3
3.97145,11983.3
3.9926,11988.5
4.01374,11984.8
4.03493,11985.4
4.05608,11989.9
4.07727,11989.7
4.09841,11989.5
4.11961,11989.2
4.14075,11987
4.16199,11980
4.18309,11984
4.20428,11978.8
4.22542,11979
4.24661,11981.8
4.26771,11981.5
4.28895,11984.9
4.3101,11989.9
4.33119,11985.6
4.35243,11989.9
4.37358,11986.7
4.39472,11981.6
4.41591,11980.4
4.43701,11981.4
4.4582,11987.2
4.47939,11982.5
4.50058,11977.4
4.52173,11982.8
4.54292,11981.7
4.56402,11986.8
4.58521,11978.8
4.6064,11975.1
4.62759,11976.4
4.64869,11983.4
4.66988,11985
4.69103,11987.3
4.71222,11982.1
4.73341,11974.2
4.7546,11980.3
4.77565,11985.6
4.79689,11984.4
4.81808,11974.3
4.83923,11978.2
4.86037,11982.2
4.88156,11975.8
4.90266,11977.7
4.9239,11980.5
4.94504,11973.6
4.96624,11972.1
4.98738,11974.1
5.00857,11982.4
5.02967,11974.8
5.05091,11970.9
5.07205,11979.4
5.0932,11970.1
5.11439,11980.6
5.13558,11971.7
5.15673,11971.3
5.17792,11966.6
5.19906,11970
5.22025,11966.6
5.2414,11967.8
5.26259,11977.5
5.28373,11969.9
5.30497,11965.9
5.32612,11972.7
5.34726,11972.1
5.36841,11966
5.38964,11969.9
5.4107,11974.5
5.43198,11967.9
5.45308,11962.6
5.47422,11963.1
5.49542,11959.7
5.51665,11961.9
5.5378,11961.5
5.55894,11962.1
5.58013,11964.8
5.60128,11971.9
5.62242,11970.6
5.64362,11969.5
5.66476,11969.2
5.68595,11963.5
5.7071,11963.5
5.72829,11961.6
5.74943,11957
5.77067,11960.9
5.79177,11960.5
5.81296,11956.1
5.8341,11953.3
5.85525,11952.4
5.87644,11956
5.89763,11954.6
5.91873,11954
5.93988,11954.1
5.96111,11962.5
5.9823,11954
6.0034,11948.1
6.02459,11955.1
6.04574,11960.1
6.06693,11960.9
6.08812,11954.7
6.10931,11950.1
6.13041,11947.9
6.15165,11943.7
6.17275,11945.4
6.19394,11945.5
6.21508,11950.2
6.23623,11952.4
6.25737,11953.875
6.27861,11942.7
6.29976,11945.8
6.3209,11950.7
6.34209,11949
6.36328,11948.3
6.38438,11948.7
6.40562,11943.8
6.42672,11943.8
6.44796,11938.3
6.4691,11934.9
6.49034,11940.3
6.51144,11938.3
6.53263,11940.9
6.55377,11940.8
6.57492,11943
6.59606,11943.2
6.61726,11939.6
6.6384,11944.2
6.65964,11939.3
6.68078,11941
6.70193,11940.6
6.72307,11932.6
6.74426,11929
6.76541,11928
6.7866,11930.5
6.80779,11928.2
6.82894,11927.8
6.85008,11931.2
6.87132,11931.3
6.89242,11934.9
6.91361,11919.9
6.93475,11925.4
6.95594,11933.2
6.97709,11926.3
6.99828,11929.7
7.01943,11924.7
7.04057,11916.7
7.06176,11919.6
7.08291,11918.1
7.1041,11925.8
7.12529,11920.8
7.14643,11923.3
7.16758,11910.9
7.18877,11924
7.20992,11913.7
7.23106,11914.4
7.2523,11918.3
7.27344,11911.2
7.29459,11908.2
7.31578,11917.5
7.33692,11910.6
7.35807,11909.3
7.37926,11903.9
7.40041,11907.4
7.4216,11904.7
7.44279,11905.1
7.46393,11908.8
7.48512,11907.5
7.50627,11906.9
7.52741,11900.8
7.54856,11898.7
7.56975,11896.9
7.59094,11897.1
7.61204,11904.5
7.63328,11893.1
7.65442,11904.4
7.67561,11899.9
7.69681,11889.375
7.71795,11889.3
7.73905,11896.5
7.76024,11901.1
7.78143,11890.8
7.80257,11894.3
7.82377,11896.4
7.84491,11894
7.86606,11895.4
7.88729,11889
7.90839,11889.3
7.92954,11880.4
7.95078,11889.4
7.97187,11880
7.99306,11885.5
8.0143,11879.3
8.03545,11885.2
8.05659,11876.8
8.07774,11883.6
8.09893,11879.3
8.12007,11876.4
8.14131,11871.1
8.16241,11874.8
8.18355,11875.6
8.20479,11870.1
8.22589,11877.8
8.24713,11866.8
8.26832,11867.5
8.28942,11872.8
8.31056,11864.8
8.3318,11871
8.35295,11868.2
8.37409,11869.6
8.39533,11868.5
8.41643,11859.6
8.43757,11861.2
8.45881,11861.8
8.47995,11862
8.50115,11861.5
8.52229,11859.4
8.54344,11860.3
8.56458,11859.5
8.58582,11856.7
8.60696,11853.9
8.62811,11857.8
8.6493,11857.9
8.67044,11854.5
8.69159,11852.7
8.71283,11844.3
8.73393,11841.5
8.75507,11839.3
8.77626,11841.2
8.79745,11841.5
8.81864,11845.7
8.83979,11843.8
8.86093,11831.4
8.88208,11834.8
8.90327,11840.9
8.92441,11834
8.94561,11829.9
8.9668,11827.7
8.9879,11830.4
9.00913,11828.9
9.03028,11829.6
9.05142,11829.7
9.07261,11820.9
9.09376,11831.1
9.1149,11816.7
9.1361,11825.8
9.15729,11821.7
9.17848,11812.5
9.19967,11814.9
9.22082,11812.6
9.24191,11812.4
9.26315,11817.7
9.2843,11811.6
9.30544,11804.2
9.32659,11814.2
9.34778,11810.5
9.36892,11803.2
9.39016,11801.2
9.4113,11810.2
9.43245,11795.3
9.45359,11808.7
9.47483,11799.8
9.49588,11799.1
9.51712,11800.7
9.53831,11797.8
9.55941,11789.4
9.58065,11795.9
9.60179,11787.5
9.62294,11790.1
9.64418,11790.4
9.66527,11785.7
9.68642,11781
9.70761,11789
9.7288,11789.4
9.7499,11779.9
9.77119,11777.1
9.79228,11777.5
9.81343,11775.5
9.83462,11776.3
9.85586,11773.2
9.87691,11765.3
9.89815,11772.8
9.91929,11775.4
9.94044,11762.2
9.96167,11770
9.98282,11764.7
10.0039,11766
10.0252,11756.8
10.0463,11766.7
10.0674,11755
10.0886,11754.2
10.1098,11754.1
10.1309,11753.2
10.1522,11757.5
10.1733,11756.4
10.1945,11740.8
10.2156,11750.4
10.2368,11749.7
10.2578,11746.1
10.2791,11736.2
10.3003,11744.4
10.3214,11738.5
10.3427,11733.2
10.3638,11736.7
10.3849,11730.8
10.4062,11731.8
10.4273,11731
10.4484,11728.7
10.4696,11729.8
10.4908,11722.2
10.5119,11727.3
10.5332,11716.6
10.5543,11713.4
10.5754,11721.7
10.5966,11709.8
10.6178,11719
10.6389,11709.7
10.6602,11701.4
10.6813,11706.8
10.7024,11707.1
10.7237,11699
10.7448,11707.7
10.7659,11699.4
10.7872,11690.8
10.8083,11699.25
10.8294,11698.4
10.8506,11693.4
10.8718,11693.3
10.8928,11690
10.9142,11687.4
10.9353,11689.5
10.9564,11680.2
10.9776,11680
10.9988,11681
11.0198,11670.8
11.0411,11666.4
11.0623,11666
11.0834,11665.8
11.1046,11670
11.1258,11666.2
11.1469,11665.8
11.1681,11651.9
11.1893,11651.5
11.2104,11656
11.2316,11655.8
11.2527,11647.6
11.2738,11639.9
11.2951,11638.6
11.3163,11641
11.3374,11642.5
11.3585,11642.7
11.3798,11631.1
11.4009,11632.4
11.4221,11632.2
11.4433,11630.1
11.4644,11627.6
11.4856,11623.5
11.5068,11622.8
11.5279,11620.1
11.5492,11610.5
11.5703,11606.6
11.5914,11612.1
11.6126,11601.5
11.6338,11599.1
11.6549,11595.8
11.6762,11596.2
11.6973,11587
11.7184,11587.1
11.7396,11591.4
11.7608,11586.1
11.7819,11575.5
11.8031,11570.9
11.8243,11573.7
11.8454,11573
11.8667,11569.7
11.8879,11557.2
11.909,11561.8
11.9301,11551.2
11.9513,11553
11.9724,11544.8
11.9937,11548.8
12.0148,11546.1
12.036,11540.3
12.0572,11533.9
12.0783,11526
12.0995,11523.875
12.1206,11529.8
12.1419,11521.1
12.163,11519
12.1842,11518.9
12.2053,11509.6
12.2265,11502.4
12.2477,11499
12.2688,11498.3
12.29,11497.7
12.3112,11489.1
12.3324,11484.4
12.3535,11482.9
12.3747,11480.6
12.3958,11468.5
12.4169,11464.2
12.4382,11455
12.4593,11455.1
12.4805,11456.4
12.5017,11448.2
12.5229,11434.6
12.544,11431.3
12.5652,11433.5
12.5863,11426.2
12.6075,11414.4
12.6287,11411.5
12.6499,11403.7
12.671,11399.8
12.6922,11395.8
12.7133,11394.2
12.7345,11392.9
12.7557,11380.4
12.7768,11371.3
12.798,11365.8
12.8192,11370.6
12.8404,11361.1
12.8615,11346.4
12.8827,11353.7
12.9039,11336.3
12.925,11329.7
12.9462,11323.7
12.9674,11323.5
12.9885,11309.5
13.0097,11299.9
13.0308,11299.4
13.052,11291
13.0732,11280.6
13.0944,11280
13.1156,11261.5
13.1367,11261.9
13.1578,11254.1
13.179,11240.8
13.2002,11244.3
13.2213,11230.1
13.2425,11221.6
13.2637,11208.1
13.2849,11206.3
13.306,11188.5
13.3272,11188.3
13.3483,11171.4
13.3695,11164.3
13.3907,11163.7
13.4118,11149
13.433,11134.3
13.4542,11133.8
13.4753,11115.6
13.4965,11105.4
13.5177,11106.2
13.5388,11086.9
13.56,11075.4
13.5812,11066.7
13.6023,11060.4
13.6235,11041.2
13.6447,11043.1
13.6658,11022.4
13.6871,11015.9
13.7082,10997.9
13.7294,10993
13.7505,10976.6
13.7717,10963.2
13.7928,10955.5
13.8141,10938.3
13.8353,10930
13.8564,10921.4
13.8775,10900.9
13.8988,10892.7
13.9198,10879.4
13.9411,10868.5
13.9622,10848.9
13.9834,10843.2
14.0046,10823.7
14.0258,10809.4
14.0469,10799.9
14.0681,10781.9
14.0892,10763.6
14.1103,10755
14.1316,10738.6
14.1528,10722.4
14.1738,10708.9
14.1951,10692
14.2163,10680.2
14.2374,10659.3
14.2586,10641.3
14.2798,10634.8
14.3008,10608.4
14.3221,10595.5
14.3433,10583.5
14.3644,10564.5
14.3856,10541.5
14.4068,10527.8
14.4279,10518.8
14.4491,10495.2
14.4703,10470
14.4914,10451
14.5127,10437.8
14.5338,10420.4
14.5549,10406.1
14.5761,10386
14.5974,10367.7
14.6185,10348.4
14.6397,10327.7
14.6609,10300.3
14.6819,10280.1
14.7032,10266.1
14.7243,10241.6
14.7455,10214.2
14.7667,10194.7
14.7879,10172.7
14.809,10151.5
14.8302,10136.7
14.8514,10108.6
14.8725,10081.7
14.8937,10057.8
14.9149,10036.4
14.936,10018.1
14.9573,9995.56
14.9784,9970.42
14.9995,9950.04
15.0207,9923.48
15.0419,9896.92
15.063,9870.68
15.0843,9845.22
15.1055,9815.43
15.1266,9786.4
15.1478,9762.34
15.169,9727.41
15.1901,9700.5
15.2114,9670
15.2325,9642.16
15.2536,9617.26
15.2748,9592.67
15.296,9555.73
15.3171,9522.15
15.3384,9499.71
15.3595,9469.51
15.3807,9436.39
15.4019,9406.34
15.423,9361.2
15.4441,9333.12
15.4653,9298.38
15.4865,9263.48
15.5076,9231.23
15.5288,9200.83
15.55,9157.87
15.5711,9119.87
15.5923,9081.06
15.6135,9048.34
15.6346,9012.79
15.6558,8975.04
15.677,8924.94
15.6981,8885.14
15.7194,8852.81
15.7405,8808.2
15.7617,8765.62
15.7828,8723.32
15.804,8675.78
15.8251,8636.56
15.8464,8592.42
15.8675,8542.37
15.8887,8491.56
15.9098,8438.13
15.9311,8389.94
15.9522,8346.66
15.9734,8295.05
15.9946,8234.68
16.0157,8175.93
16.0369,8129.77
16.0581,8076.51
16.0793,8011.92
16.1005,7956.42
16.1217,7897.65
16.1428,7828.74
16.164,7776
16.1852,7696.85
16.2063,7634.38
16.2275,7573.54
16.2487,7494.51
16.2699,7420.58
16.2911,7349.28
16.3122,7274.29
16.3333,7200.28
16.3546,7115.9
16.3757,7023.58
16.3969,6943.81
16.4182,6847.97
16.4393,6750.93
16.4604,6659.26
16.4817,6560.42
16.5028,6439.11
16.524,6220.03
16.5457,2427.7
16.5546,-3635.45