File: data/PrimaryData/Steel_1018/Tensile_test_1.csv
Displacement (mm),Load (N)
0.00029101,0.72046
-4.58908e-05,0.875713
-1.74732e-05,1.39688
4.87454e-05,0.573541
0.000137824,2.15582
9.74677e-05,2.2188
9.55713e-05,2.36304
-7.32306e-05,3.42314
8.79396e-05,5.13364
2.7006e-05,5.86938
0.000135365,8.03528
-0.000115647,9.36891
9.55029e-05,11.608
9.67481e-05,11.6716
0.000188128,15.6948
0.000214068,17.4521
0.000313385,20.1164
0.000263308,22.0712
0.000140106,24.0517
-6.56245e-05,27.1002
1.45733e-05,29.3216
0.000278694,32.465
0.00011366,34.6577
0.000340867,37.0866
4.58688e-05,39.6011
0.000411408,44.4046
0.000361372,48.9878
0.000265142,51.6639
0.000397109,56.4375
0.000507951,60.9791
0.0004202,64.713
0.00031566,67.507
0.000377938,72.4634
0.000443924,76.4556
0.000571011,80.7513
0.000411733,84.1457
0.000561004,89.7562
0.000218937,94.058
0.000614845,97.3025
0.000539539,98.8415
0.000733038,101.7
0.000497091,104.127
0.000499346,108.396
0.000482028,109.663
0.000583032,113.197
0.00051398,117.187
0.000535027,120.319
0.000532679,121.743
0.000473547,126.106
0.000616161,127.126
0.000554125,131.261
0.000410529,135.085
0.000666124,138.818
0.000424275,143.056
0.000557048,145.72
0.000720518,149.581
0.00056294,154.051
0.000773524,157.071
0.000552503,160.509
0.000352195,163.484
0.000836019,167.349
0.00057623,169.772
0.000561411,173.979
0.000757134,178.225
0.000852801,180.733
0.000852373,184.624
0.000612414,189.089
0.000738641,192.34
0.000865217,195.519
0.000768419,199.556
0.000778944,202.675
0.000689648,206.693
0.00101119,209.211
0.000709954,212.989
0.000892585,216.255
0.000654614,220.484
0.000782411,223.541
0.000973708,227.065
0.000884321,230.935
0.000806965,234.512
0.000821277,237.643
0.000701486,240.286
0.000693562,243.265
0.00106684,246.539
0.000991996,248.408
0.000995194,252.486
0.000815186,256.31
0.000916491,260.973
0.000832858,263.136
0.000838283,267.016
0.000601607,269.827
0.00094287,272.708
0.00109403,276.547
0.00103799,279.892
0.000910284,284.378
0.000953842,288.657
0.00116077,292.835
0.00107254,296.753
0.00119809,300.313
0.00114986,303.614
0.000966534,306.943
0.00112211,311.629
0.00124449,316.944
0.00120973,321.521
0.00116844,327.47
0.00121726,330.685
0.00109605,335.783
0.00119389,340.629
0.00120664,345.453
0.00132819,351.656
0.00122478,356.237
0.00113914,363.737
0.00105892,366.797
0.00158494,372.753
0.00146724,377.303
0.00147431,383.476
0.00129746,388.168
0.00142001,394.842
0.00165433,400.027
0.00144108,404.838
0.00142818,410.741
0.00166208,415.729
0.00129796,422.241
0.0012926,429.226
0.00168372,436.097
0.00164082,440.799
0.00184767,447.133
0.00150469,453.766
0.00161609,458.989
0.00180186,466.336
0.00170287,473.667
0.00157122,479.835
0.00157409,485.874
0.00167168,492.533
0.00190189,501.51
0.00170739,509.658
0.00161646,517.937
0.00164316,524.555
0.00197049,531.62
0.00175076,540.247
0.00186669,547.906
0.00190773,557.209
0.00198741,565.57
0.00204085,574.147
0.00204074,582.4
0.00219076,591.029
0.00216658,602.16
0.00223614,610.483
0.00228409,619.19
0.00231101,627.233
0.00216678,637.63
0.00236926,647.677
0.0025943,658.464
0.0024533,666.053
0.00232254,675.289
0.00269759,686.203
0.00274087,698.12
0.00242478,707.058
0.0025216,714.66
0.00267318,726.608
0.00261901,740.026
0.00284174,750.63
0.00265392,757.868
0.00280517,768.304
0.00267083,781.03
0.00295821,793.199
0.00263767,804.385
0.00275889,813.202
0.00297226,826.525
0.00306177,839.357
0.00277389,851.269
0.00316884,861.846
0.00282403,874.225
0.00302372,888.423
0.0030327,899.941
0.00325629,910.878
0.00302861,923.782
0.00316432,939.419
0.00331604,951.203
0.00314974,961.597
0.0034381,975.419
0.0033094,992.081
0.00343265,1004.82
0.00357952,1016.29
0.00362955,1028.62
0.00347251,1045.49
0.00355829,1058.2
0.00326907,1069.31
0.00348797,1083.57
0.00373504,1099.2
0.0037041,1110.45
0.0037388,1122.73
0.00374663,1138.02
0.00369928,1153.33
0.00405781,1165.73
0.00399441,1178.73
0.00411691,1195.99
0.00412875,1210.75
0.00390826,1222.84
0.003904,1240.41
0.0044001,1257.16
0.00384695,1268.52
0.00416496,1283.78
0.00414817,1302.01
0.00430823,1315.94
0.00450092,1330.49
0.00450253,1348.01
0.00452839,1364.11
0.00450711,1376.86
0.00454445,1392.5
0.00452011,1412.44
0.0044371,1426.99
0.00470735,1443.27
0.0047026,1461.27
0.0048701,1475.28
0.00499154,1491.49
0.00489049,1511.25
0.00510975,1528.41
0.00503001,1541.65
0.00495084,1561.37
0.00504637,1579.92
0.00532835,1594.51
0.00511701,1613.19
0.00527453,1632.96
0.00538073,1648.53
0.00536315,1668.61
0.00553566,1689.64
0.00537835,1702.05
0.00564792,1723.32
0.00571906,1743.16
0.00565595,1759.31
0.00582628,1780.41
0.00573522,1798.76
0.00588888,1814.67
0.00608927,1837.22
0.0063138,1857.19
0.00630537,1873.63
0.00631825,1895.82
0.00630898,1914.75
0.00629869,1930.84
0.0065302,1955.72
0.0067441,1974.18
0.00651909,1993.57
0.00659774,2017.35
0.00671595,2035.61
0.00679909,2057.44
0.00696832,2078.78
0.0071012,2096.81
0.00703932,2120.61
0.00724545,2141.71
0.00737992,2160.38
0.00749197,2184.53
0.00740775,2201.23
0.00757949,2225.27
0.00755097,2247.46
0.00774949,2266.41
0.00792765,2294.03
0.00791796,2312.04
0.00790586,2333.38
0.00802293,2357.18
0.0080069,2374.56
0.00806312,2401.48
0.00834201,2420.63
0.00830742,2443.4
0.00850984,2466.25
0.00857224,2483.61
0.00862408,2511.62
0.00869094,2530.87
0.00897442,2554.17
0.008761,2575.35
0.00897616,2598.11
0.00917355,2625.32
0.00919374,2643.07
0.00917211,2669.32
0.00932284,2688.66
0.00924768,2712.625
0.00953349,2736.17
0.00961683,2756.53
0.00985858,2785.24
0.00974358,2805.2
0.00999616,2833.11
0.0101832,2854.15
0.0101867,2879.09
0.0102563,2903.1
0.0103183,2924.9
0.0106169,2951.35
0.0103594,2972.63
0.0103919,3000.07
0.0106538,3019.74
0.0108307,3047.49
0.0108572,3067.75
0.0111348,3095.92
0.011062,3116.73
0.0114809,3142.39
0.0110517,3165.42
0.011374,3188.96
0.0113372,3214.76
0.0115207,3236.32
0.0117714,3263.27
0.0116257,3282.44
0.0118069,3311.51
0.0117568,3331.34
0.0118935,3358.74
0.0122104,3376.17
0.0122662,3403.22
0.0122489,3420.72
0.0125317,3447.96
0.012341,3463.05
0.0123999,3489.22
0.0122435,3505.67
0.0124162,3533.9
0.0127965,3550.78
0.0124699,3574.78
0.0125953,3593.02
0.0127374,3619.84
0.0126369,3636.34
0.012689,3663.81
0.0129159,3681.97
0.0128962,3711.31
0.013027,3730.15
0.0131472,3758.2
0.0132454,3795.47
0.0134409,3808.12
0.0134282,3831.66
0.0135289,3851.8
0.013624,3877.27
0.0134906,3897.79
0.0135919,3925.12
0.0138204,3945.16
0.0140779,3970.5
0.0140068,3991.92
0.01395,4017.41
0.0141818,4039.8
0.0146821,4062.35
0.0145508,4088.19
0.014441,4110.95
0.0145387,4136.85
0.0147409,4156.56
0.0149941,4184.24
0.0151514,4206.91
0.015011,4233.04
0.0152026,4255.86
0.0154157,4279.46
0.0153791,4306.13
0.0154862,4327.6
0.0156775,4353.69
0.0158412,4374.82
0.0157954,4402.36
0.016329,4426.58
0.0161151,4448.04
0.0161985,4476.69
0.0162233,4498.82
0.0168178,4525.83
0.0170903,4549.47
0.0169476,4572.96
0.0169336,4601
0.0172784,4622.71
0.0172658,4649.82
0.0172375,4677.14
0.0174168,4700.2
0.0176145,4726.96
0.0179468,4751.59
0.0180849,4778
0.0179733,4803.7
0.0181176,4824.64
0.0181957,4855.3
0.0181684,4878.28
0.0184753,4902.93
0.0187571,4932.33
0.0189351,4954.66
0.0187727,4980.57
0.019056,5006.71
0.0189896,5029.3
0.0195077,5058.22
0.0193509,5081.34
0.0195577,5105.88
0.0197079,5134.78
0.0199928,5158.59
0.0199907,5182.6
0.0203609,5213.2
0.0201542,5234.88
0.0203193,5260.57
0.0204659,5289.69
0.0206814,5311.81
0.0209356,5338.68
0.0210163,5370.21
0.0210479,5391.64
0.021174,5417.89
0.0214101,5447.59
0.0214388,5472.19
0.0218682,5495.81
0.0217801,5524.44
0.0219215,5550.22
0.0220889,5575.18
0.0221461,5605.44
0.0223214,5630.79
0.0222065,5655.27
0.022655,5683.14
0.0228299,5710.88
0.0230308,5735.91
0.0230302,5761.12
0.0233215,5790.69
0.0233206,5815.08
0.0235761,5841.69
0.0237165,5872.26
0.0240445,5899.57
0.02429,5923.23
0.0243406,5950.75
0.0242841,5982.29
0.0245181,6007.49
0.0248969,6033.17
0.025052,6063.48
0.0250867,6094.04
0.0254208,6118.11
0.0256344,6145.9
0.0256222,6174.92
0.0260494,6204.2
0.0259572,6231.55
0.0262926,6257.76
0.0267368,6288.48
0.0266735,6317.17
0.026795,6342.47
0.026911,6370.67
0.0271319,6401.62
0.0274056,6432.11
0.0275034,6457.16
0.0276198,6484.16
0.0278053,6513.87
0.0281695,6543.2
0.0283834,6570.68
0.0284369,6599.4
0.028778,6630.74
0.0288425,6663.22
0.0291223,6690.74
0.0294941,6718.6
0.0295207,6746.93
0.0298054,6776.27
0.0301656,6808.26
0.0301354,6837.67
0.0303953,6864.85
0.0304758,6893.64
0.0308005,6924.2
0.0312175,6956.02
0.0312749,6985.58
0.0313482,7011.85
0.0315329,7040.98
0.0318603,7071.47
0.0320944,7102.21
0.0322527,7134.46
0.032338,7163.99
0.0326732,7189.89
0.0329002,7221.22
0.033099,7250.22
0.0331693,7284.55
0.0337236,7317.36
0.0338898,7345.08
0.0340519,7373.7
0.0343282,7402.97
0.0345676,7434.18
0.0347662,7469.01
0.0349204,7498.55
0.0352206,7531.84
0.0353867,7559.29
0.0357369,7588.83
0.0359923,7619.87
0.0361737,7651.2
0.0361913,7686.58
0.0365225,7719.15
0.0368202,7751.85
0.0369525,7782.22
0.0373143,7810.22
0.0375866,7841.99
0.0378737,7875.07
0.0380754,7908.19
0.0384191,7941.93
0.0386303,7975.06
0.038584,8008.72
0.0390361,8040.54
0.0395129,8071.14
0.0395861,8103.41
0.0399797,8136.04
0.0402716,8167.77
0.0405084,8201.19
0.0406662,8233.54
0.0413197,8269.34
0.0412828,8302.49
0.0417024,8336.52
0.0419316,8370.21
0.0422012,8402.76
0.0424575,8436.24
0.0427626,8466.78
0.0430524,8500.51
0.0434166,8532.65
0.04362,8565.58
0.0440243,8598.86
0.0444361,8632.38
0.0446867,8666.07
0.0448909,8701.02
0.0451569,8736.7
0.0456323,8772.21
0.04589,8807.67
0.0462535,8843.2
0.0464828,8874.74
0.0468696,8911.79
0.0472283,8947.2
0.0473885,8983.3
0.0479268,9016.28
0.0480915,9050.04
0.0484216,9084.9
0.0486429,9120
0.0489308,9156.95
0.0493849,9188.51
0.049852,9223.85
0.0500062,9257.19
0.0506229,9295.43
0.0508192,9330.21
0.0514285,9367.19
0.0515634,9402.33
0.0518432,9435.91
0.0523999,9470.75
0.052839,9506.2
0.0531147,9543.75
0.0535177,9577.38
0.0538447,9613.43
0.0543338,9647.29
0.0547301,9685.63
0.0551266,9720.77
0.0555193,9756.77
0.0558723,9792.47
0.0562892,9828.58
0.0568791,9863.11
0.0572656,9900.99
0.0579658,9938.76
0.0580246,9973.5
0.058602,10010.8
0.0591294,10046.2
0.0595555,10083
0.0598368,10117.3
0.060462,10155.9
0.0608818,10191.1
0.0612091,10228.3
0.0616188,10264
0.0620147,10300.9
0.0626291,10338.1
0.0631424,10375.1
0.0634372,10411.7
0.0642246,10447.8
0.0644297,10483.7
0.065068,10521.7
0.0656017,10558.1
0.0662116,10592.3
0.0665226,10626.9
0.0669862,10664.1
0.0676054,10702.1
0.068149,10741.3
0.068558,10777.8
0.0693347,10814.3
0.0698665,10853.7
0.0705285,10891.2
0.0709461,10928.3
0.0712582,10962.1
0.0720873,10999.8
0.0726989,11035.4
0.0732758,11074.3
0.0739687,11112.9
0.07481,11151.4
0.0753364,11189.4
0.075869,11226.9
0.0761569,11263.4
0.0771414,11298.2
0.0778119,11335.2
0.0786436,11370.2
0.0789799,11410
0.0796969,11448
0.0803428,11483.9
0.0814764,11517.7
0.0816213,11553.4
0.0825198,11588
0.0831712,11626.6
0.0840477,11665.5
0.0844414,11703.4
0.0855592,11737.2
0.0860195,11772.1
0.086837,11805.8
0.0876713,11845.2
0.0884436,11883.4
0.0891664,11920.3
0.0900362,11954.2
0.0911233,11989.1
0.0919425,12022.3
0.0927927,12059.7
0.0942102,12200
0.0979471,12375.1
0.101305,12481.4
0.104589,12578.5
0.107609,12673.1
0.110879,12761.4
0.114349,12853.7
0.117605,12941.2
0.121072,13026.7
0.12491,13109.1
0.128379,13190
0.132376,13267.5
0.136726,13345.1
0.141125,13418.1
0.1456,13492.9
0.150302,13559
0.155335,13626.2
0.160034,13687.4
0.165564,13751
0.171376,13810.3
0.177396,13865.4
0.18376,13917.9
0.19065,13967.5
0.197663,14015.8
0.205008,14061.6
0.212572,14102.5
0.220767,14140
0.228929,14175.3
0.237687,14211.5
0.246412,14241.6
0.256189,14274.5
0.265746,14301.7
0.275485,14324.5
0.285423,14351.7
0.295916,14373.2
0.30643,14393.6
0.317314,14413.9
0.328565,14431.7
0.340033,14446.9
0.35159,14462.3
0.363292,14479.1
0.374906,14491
0.387239,14505.4
0.3992,14517.6
0.411302,14526.3
0.423831,14539.9
0.436386,14551.9
0.449027,14558.8
0.461719,14567.9
0.47455,14579
0.487173,14586.9
0.500421,14595.9
0.513211,14607.7
0.526457,14612.5
0.539737,14620
0.552708,14628.4
0.565708,14632.1
0.579011,14642.9
0.592338,14651.3
0.605365,14653.1
0.618367,14660.3
0.631628,14667.1
0.644987,14673.5
0.65822,14677.8
0.671315,14686.7
0.684749,14687.5
0.697569,14692.8
0.711079,14702.4
0.724157,14703.8
0.737533,14711.5
0.750562,14716.1
0.763986,14718.4
0.776934,14726.4
0.790539,14731.9
0.803832,14736
0.81744,14737.9
0.830753,14743.1
0.843994,14746.3
0.857394,14749.6
0.870756,14757.1
0.884115,14757.5
0.897725,14760.1
0.910658,14768.1
0.924375,14769.2
0.937755,14772.9
0.951302,14777.4
0.964672,14778.5
0.977742,14781.9
0.991284,14789.1
1.00485,14793.9
1.01842,14793.8
1.03184,14802.1
1.04543,14799.8
1.05898,14802.6
1.0728,14809.4
1.0864,14812.6
1.10013,14813.6
1.11408,14815.8
1.12758,14817.5
1.14123,14820.4
1.15487,14825.2
1.16882,14827.3
1.18262,14827.2
1.1965,14830.8
1.20988,14832.8
1.22389,14834.7
1.23782,14842.1
1.25179,14840.9
1.26566,14842.3
1.27957,14846.9
1.29335,14850.6
1.3075,14849.7
1.32153,14853.4
1.33555,14854.6
1.34916,14853.6
1.36309,14858.9
1.37711,14863.7
1.39106,14861.8
1.40488,14866.7
1.41906,14864.9
1.43307,14868.3
1.4466,14871.1
1.46093,14873.6
1.47484,14873.2
1.4888,14876.2
1.50312,14878.4
1.5168,14878
1.53105,14882.5
1.5453,14886.1
1.55954,14882.9
1.57347,14884.8
1.58769,14887.8
1.60151,14890
1.61649,14892.75
1.63067,14894.5
1.6448,14892.3
1.65863,14894.1
1.67286,14898.1
1.68702,14896.9
1.70133,14898.2
1.71543,14900.9
1.7301,14899.8
1.74403,14903.6
1.7583,14905.3
1.77276,14906.9
1.78717,14906.2
1.80124,14909.1
1.8159,14909.6
1.83016,14910
1.84478,14914.4
1.85901,14912
1.87347,14913.8
1.8876,14916
1.90195,14915
1.91668,14918.9
1.93087,14917.7
1.94524,14918.6
1.95963,14918.5
1.97394,14922.3
1.98849,14923.4
2.00288,14923
2.01781,14926.5
2.03201,14924.4
2.0467,14924.7
2.06121,14929.9
2.07578,14928
2.09043,14928.5
2.10506,14929.1
2.11975,14929.3
2.13425,14930.7
2.14885,14935
2.16372,14935.5
2.17791,14931.4
2.19255,14934.3
2.20705,14935.5
2.22186,14934.4
2.23677,14939.6
2.25115,14937.2
2.26587,14935.7
2.28046,14939.9
2.29517,14940
2.31001,14941.3
2.32469,14942.1
2.33944,14943.7
2.35401,14939.8
2.36888,14942.6
2.38377,14944.7
2.3987,14941.4
2.4132,14945.7
2.428,14943.7
2.44254,14944.6
2.45732,14946.9
2.47209,14948.1
2.48699,14945.4
2.50168,14945.7
2.51653,14948.6
2.53095,14947.2
2.54636,14951.6
2.5611,14951.2
2.57595,14948.2
2.59038,14950.3
2.60553,14952
2.62078,14952.3
2.63532,14952.3
2.65053,14951.9
2.66523,14949.8
2.68037,14952.9
2.69518,14955.2
2.71027,14954.3
2.72498,14955.3
2.73988,14954.6
2.75481,14954.1
2.76963,14956.4
2.78464,14957.2
2.7997,14954
2.81446,14957
2.82981,14957
2.84499,14958.1
2.86005,14958.4
2.87538,14960.5
2.89045,14957
2.90559,14957.8
2.92051,14961.3
2.93588,14957.9
2.95076,14959.7
2.96601,14961.5
2.98102,14958.2
2.99579,14959.5
3.01115,14960.6
3.02628,14961.9
3.04147,14959.4
3.05651,14959.1
3.07184,14959.3
3.0868,14961.9
3.10192,14963.1
3.1176,14962.1
3.13249,14960.3
3.14807,14962.2
3.16298,14961.4
3.17806,14962.1
3.19316,14962.8
3.20887,14964.3
3.22405,14962.2
3.23933,14964.1
3.25447,14963
3.26983,14961.7
3.28523,14963.4
3.30034,14962.3
3.31571,14960.9
3.33105,14963.6
3.34628,14961.5
3.36194,14964.3
3.37672,14961.8
3.39233,14963.5
3.40801,14964.2
3.42365,14966.2
3.4385,14964.1
3.45427,14962.2
3.46955,14964.4
3.48486,14963.6
3.50027,14961.7
3.51558,14966.6
3.53106,14963.8
3.54583,14961.6
3.56153,14961.7
3.57732,14963.8
3.59265,14963
3.60823,14964
3.62361,14962.3
3.63905,14963
3.65431,14962.2
3.67004,14964.8
3.68587,14963.2
3.70127,14964.1
3.7167,14961.7
3.73231,14962.3
3.74811,14961.7
3.76364,14963.6
3.77914,14961.1
3.79451,14960.6
3.81016,14963.8
3.82569,14962.2
3.84137,14962.2
3.85708,14962.5
3.8728,14961.5
3.88817,14961.8
3.90374,14961.8
3.9194,14961.8
3.93533,14962.2
3.95087,14962
3.96683,14962.9
3.9825,14962.3
3.99844,14964.4
4.01441,14959.8
4.03005,14958.9
4.04583,14962
4.06135,14958.2
4.07671,14957.9
4.09263,14961.4
4.10828,14959.7
4.12409,14957.1
4.13966,14959
4.15533,14958.6
4.17162,14957.6
4.18702,14958.7
4.20292,14957.1
4.2184,14955.6
4.23445,14959.7
4.25032,14958.6
4.26604,14957.8
4.28209,14957.1
4.29781,14956.4
4.31362,14953.9
4.32954,14955.9
4.34552,14957.4
4.3615,14952.8
4.37717,14954.6
4.39307,14954.7
4.40882,14951.9
4.42462,14954.6
4.44074,14954.1
4.45662,14951.3
4.47271,14952.4
4.48849,14952.2
4.50452,14951.3
4.52052,14953.4
4.53638,14952.6
4.55245,14948.6
4.5682,14951.2
4.58424,14951.7
4.6002,14947.5
4.61637,14950.9
4.63217,14948.4
4.64814,14946.6
4.66408,14950.7
4.67991,14948.8
4.69629,14946.2
4.71228,14945.5
4.72828,14945.8
4.74423,14942.7
4.76013,14945.1
4.77624,14948
4.7925,14944
4.80864,14946.3
4.8245,14944.1
4.84085,14944.8
4.85694,14945.375
4.87325,14945.9
4.88977,14941.9
4.90567,14942.4
4.92163,14942.6
4.93783,14940.1
4.95421,14941.8
4.9702,14942.7
4.98653,14939.1
5.00285,14941.2
5.01894,14939.5
5.03536,14940.3
5.0514,14938.1
5.06767,14937.6
5.08427,14937.5
5.10048,14938.1
5.11702,14939.8
5.13353,14936.8
5.14995,14936
5.1662,14936.6
5.18247,14933.1
5.19896,14934.1
5.21545,14933.8
5.23203,14931.2
5.24769,14932.6
5.26434,14931.6
5.28091,14930.6
5.2972,14929.9
5.31373,14930
5.32993,14927.5
5.34635,14928.3
5.36266,14928.2
5.37964,14926.2
5.39602,14930
5.41228,14928
5.42896,14926.4
5.44559,14925.3
5.46216,14924.8
5.47845,14924.4
5.49524,14922.1
5.51198,14922.8
5.52827,14921.7
5.54491,14920.8
5.56127,14923.8
5.57818,14921.3
5.59441,14919.3
5.61119,14919.2
5.62789,14918.5
5.64446,14919.7
5.6614,14919.1
5.67818,14918.1
5.69485,14916.5
5.71154,14916.7
5.72828,14917.4
5.74526,14914.3
5.76173,14914.3
5.77845,14911.4
5.79509,14912
5.81175,14911.4
5.82884,14911
5.84572,14911.4
5.86258,14910.6
5.87918,14910
5.89602,14908.5
5.91312,14907.2
5.92943,14908.8
5.94662,14905.7
5.96335,14905.3
5.9805,14905.6
5.99721,14905.9
6.01436,14904.7
6.03129,14904.4
6.04842,14901.7
6.06521,14899.3
6.08229,14902.3
6.0993,14901.9
6.11634,14897.7
6.13353,14898
6.15048,14896.3
6.16742,14896.3
6.18426,14897.1
6.20149,14894.8
6.21873,14893.6
6.23536,14893.1
6.25249,14893.1
6.26965,14891
6.28726,14893.6
6.30421,14892.5
6.32128,14888.7
6.33883,14891.1
6.35578,14889
6.37276,14885.9
6.39025,14886.9
6.4072,14884.6
6.42423,14881.9
6.44151,14881.9
6.45846,14884.4
6.47581,14880.2
6.49315,14881.2
6.51053,14881
6.52736,14876.2
6.54471,14879.6
6.56184,14879.9
6.57905,14876.4
6.59688,14877
6.61407,14875.4
6.63141,14873.7
6.64904,14874.6
6.6664,14875.2
6.68383,14869.1
6.70134,14871.8
6.71896,14872.1
6.73633,14867.4
6.75387,14868.4
6.77126,14868
6.78885,14862.3
6.80614,14864.6
6.82373,14863.8
6.84091,14863.3
6.85874,14861
6.87627,14862.5
6.89362,14858.2
6.91136,14860.3
6.92865,14859.9
6.94642,14856
6.96443,14859.8
6.98189,14857.7
6.99969,14852.8
7.01736,14855.6
7.03535,14853.7
7.05268,14849.7
7.07055,14847.3
7.08838,14850.3
7.10595,14845.3
7.12362,14848
7.14124,14849.8
7.15915,14842.7
7.17683,14843.4
7.19433,14844.7
7.21266,14839.1
7.23023,14842.7
7.24847,14842.4
7.2659,14838.2
7.28418,14837.1
7.30202,14839.6
7.32007,14834.3
7.3383,14835.6
7.35594,14836.5
7.37403,14829.6
7.392,14831.2
7.40974,14831.6
7.42788,14827.8
7.44603,14828.1
7.46397,14828.7
7.48196,14823.3
7.4999,14823.4
7.51807,14825.5
7.53597,14821.9
7.55454,14820.7
7.57271,14821.6
7.59075,14817.6
7.6092,14818.4
7.62734,14820.5
7.64574,14814.2
7.66359,14812.9
7.68212,14812.6
7.7002,14812.4
7.71846,14809.7
7.73685,14812.1
7.75527,14808
7.77371,14804.7
7.79167,14807.2
7.81006,14804.8
7.8287,14802.3
7.8471,14804.6
7.86545,14798.6
7.88403,14799
7.9022,14799.5
7.9211,14796.2
7.94,14795.6
7.95848,14796.5
7.97701,14792
7.99548,14791.2
8.01443,14792.3
8.03304,14789.7
8.05195,14785.8
8.07047,14786.1
8.08902,14782
8.10757,14784.3
8.12646,14783.6
8.14527,14782.8
8.16395,14778.4
8.18273,14779.7
8.20158,14778.9
8.22054,14776.4
8.23973,14776.1
8.2588,14772.9
8.2777,14769.2
8.29634,14772.2
8.31529,14767.8
8.3347,14767.3
8.3537,14766
8.37275,14762.1
8.39186,14761.6
8.41072,14761.4
8.42973,14759.6
8.44927,14757.7
8.46798,14756
8.48689,14754.1
8.50592,14751
8.5252,14753.2
8.54424,14750.2
8.56363,14749.8
8.583,14747
8.60194,14745.7
8.62126,14745.1
8.64068,14742.6
8.66038,14742.4
8.67956,14736.9
8.69879,14736.3
8.71792,14735.4
8.73745,14733.6
8.7568,14731.5
8.77627,14729.1
8.79574,14727.7
8.81469,14726.2
8.83434,14725.6
8.85386,14723.6
8.87301,14721
8.89246,14719.9
8.91223,14718.1
8.93162,14716.8
8.95134,14716.9
8.97091,14713.5
8.99063,14711.1
9.01032,14709.3
9.02998,14708.6
9.04966,14704.8
9.06927,14702.7
9.08885,14701
9.10849,14697.9
9.12822,14697.1
9.1477,14697
9.16774,14691.5
9.18756,14692.6
9.20697,14687.5
9.2268,14687.2
9.24669,14685.7
9.26638,14685.9
9.2865,14681.8
9.30665,14678.3
9.32631,14677.9
9.34611,14672.8
9.36631,14673.7
9.38673,14673.2
9.40656,14666.9
9.42651,14665.8
9.44651,14663.9
9.46668,14660.6
9.48704,14659.6
9.50696,14658.6
9.52702,14653
9.54726,14651
9.56718,14650.5
9.58718,14647
9.60757,14644.3
9.62792,14643.3
9.6478,14638.6
9.66798,14637.9
9.68862,14636.4
9.7091,14632.1
9.72911,14630.1
9.74958,14628.6
9.77002,14625.4
9.79025,14620.8
9.81095,14621.5
9.83091,14615.5
9.8514,14613.875
9.87152,14612.4
9.89199,14606.6
9.9123,14606.9
9.93286,14604.3
9.95329,14599.3
9.97386,14597.3
9.99416,14595.5
10.0152,14589.9
10.0356,14588.9
10.056,14586.8
10.0766,14579.1
10.0969,14577.9
10.1176,14579.2
10.1384,14572.4
10.1591,14569.1
10.1796,14566.6
10.2,14561.7
10.2207,14559.1
10.2416,14558.1
10.2619,14552.4
10.2826,14547.9
10.3034,14546.5
10.3243,14542.9
10.3453,14537.2
10.3659,14537.3
10.3867,14530.1
10.4078,14526
10.4285,14524.1
10.4492,14517.3
10.4704,14517.2
10.4913,14514
10.5123,14508.2
10.533,14501.7
10.5542,14499
10.5748,14494
10.596,14490.4
10.6168,14487.3
10.6377,14477.7
10.6586,14475.8
10.6797,14474.5
10.7006,14468.9
10.7219,14464.4
10.7431,14458.1
10.7641,14453.4
10.7849,14447.5
10.8065,14445.1
10.8274,14439
10.8489,14433.1
10.87,14429.2
10.891,14422.1
10.9125,14416.3
10.9335,14413.6
10.955,14405.6
10.9758,14397.5
10.9968,14394.2
11.0184,14389
11.0394,14381.8
11.0612,14378.3
11.082,14369.9
11.1036,14362.7
11.1246,14358.1
11.1458,14352.4
11.1672,14344.3
11.1887,14338.2
11.21,14329.3
11.2311,14324
11.2527,14317.3
11.2741,14310.3
11.2955,14300.8
11.3165,14293.2
11.3376,14285.8
11.3588,14277.7
11.3801,14270.9
11.4016,14264.5
11.4226,14253.9
11.4439,14247.6
11.465,14239.2
11.4866,14230.5
11.5083,14222.2
11.5294,14213.6
11.5507,14204.5
11.5721,14195.3
11.5933,14187.3
11.6151,14177.1
11.6366,14168.4
11.6576,14160.6
11.6792,14148.5
11.7004,14139.7
11.7218,14128.7
11.7434,14117.5
11.7643,14106.3
11.7857,14098.5
11.8067,14088.9
11.8283,14077
11.8495,14067.3
11.8709,14056.2
11.8925,14043.9
11.914,14035.1
11.9353,14022.5
11.9571,14012.2
11.9784,13999.2
12.0001,13987.2
12.0212,13976.1
12.0429,13965.4
12.0645,13952
12.0858,13937.2
12.1075,13925.2
12.1288,13913.6
12.1503,13899.3
12.1718,13888.3
12.1934,13872.4
12.2146,13859.7
12.2362,13845.5
12.2578,13834.2
12.2797,13819
12.3012,13806.4
12.3227,13790.4
12.3443,13774.6
12.3658,13761.9
12.3876,13748.5
12.4096,13730.8
12.4312,13717.5
12.4525,13699.3
12.474,13684
12.4954,13667.1
12.5169,13654.3
12.5383,13634.3
12.5599,13619
12.5813,13604.1
12.603,13586.4
12.6244,13570.6
12.6461,13554.8
12.6678,13535.5
12.6892,13518.2
12.7112,13501.3
12.7324,13481.6
12.7544,13464.4
12.7759,13447.2
12.7978,13426.9
12.8193,13408.7
12.841,13390.6
12.8627,13368.9
12.8842,13348.3
12.9057,13329.7
12.9273,13307.8
12.9488,13288.7
12.97,13269.4
12.9918,13246.3
13.0135,13224.7
13.0348,13207.3
13.0565,13182.9
13.0781,13162.2
13.1001,13140.5
13.1216,13115.4
13.1432,13092.4
13.165,13071.6
13.1868,13047.8
13.2086,13024.5
13.2304,12998
13.2519,12972.7
13.2731,12946.5
13.2947,12924.7
13.3165,12898.1
13.3383,12872.9
13.3599,12847.3
13.3813,12820.5
13.4034,12793.1
13.425,12770.5
13.4468,12739.1
13.4685,12710.2
13.4902,12683.7
13.5121,12654.3
13.5337,12625.6
13.5557,12598.7
13.5778,12566
13.5994,12534.1
13.6213,12504.6
13.6427,12472.9
13.6647,12440.5
13.6869,12411.1
13.7085,12374.1
13.7304,12340.8
13.752,12307.5
13.7739,12274
13.796,12238.6
13.8181,12203.6
13.8401,12165.2
13.8618,12127.3
13.884,12092.8
13.9058,12053.3
13.9283,12011.6
13.9502,11973.9
13.9722,11930.7
13.9941,11888.3
14.0163,11849.4
14.0385,11805.4
14.0604,11757.9
14.0826,11714.1
14.1043,11668.5
14.1262,11620.9
14.1486,11575.2
14.1707,11526.2
14.1929,11475.1
14.215,11427
14.2372,11373.4
14.2598,11318.6
14.2822,11264.1
14.3043,11206.3
14.3265,11148.6
14.349,11091
14.3713,11030.2
14.3938,10966.1
14.4161,10904.1
14.4383,10838.7
14.4606,10769.7
14.4824,10704.7
14.5047,10632.3
14.5261,10558.9
14.5478,10484.7
14.5695,10408.7
14.5914,10331
14.6138,10251.5
14.6361,10165.5
14.6583,10076.7
14.6809,9987.6
14.7036,9895.62
14.7261,9795.37
14.7489,9695.43
14.7719,9590.22
14.7952,9478.88
14.8184,9365.58
14.842,9239.45
14.8671,9086.27
14.9056,8371.27
18.0706,-116.979