File: data/PrimaryData/Steel_1018/Tensile_test_4.csv
Displacement (mm),Load (N)
0.000704855,4.97258
0.00117923,5.47521
0.0011766,10.2803
0.000790951,7.86956
0.00161809,10.0549
0.00139919,10.3958
0.00114057,11.1455
-0.000830688,-0.0122873
0.00116278,10.506
-0.000893926,1.01115
0.00148283,12.8643
-0.000270121,3.05925
0.00164911,13.9282
5.93616e-05,9.52537
0.000541077,11.6825
0.00138691,12.9016
0.000696928,9.47531
0.000815585,13.3911
0.00125804,18.6292
-0.000390354,13.2312
-0.000788173,15.2148
-0.00108231,14.58
-0.00099547,14.9491
0.000424319,20.5675
0.000514393,21.4548
0.00150107,25.9558
-0.000853424,21.1289
0.000390228,21.8535
-0.00109034,20.2765
0.00144404,31.4602
-0.000145232,22.0603
0.00157117,32.3539
-0.000823284,27.88
0.00163263,39.654
-0.000901078,33.3131
0.00180108,44.8545
0.00180477,51.4631
0.00183597,54.0978
0.000618236,56.0224
-0.000853808,50.9377
0.00148962,63.9453
-0.000322285,60.4146
0.000200025,67.2869
0.00177377,74.5009
-0.00081856,70.8648
0.00120503,86.9592
0.00190451,92.6921
1.14254e-05,87.4721
-0.000151691,96.583
-0.000502278,101.625
0.000267764,115.684
0.00162677,128.796
0.00243291,138.026
0.000897868,146.813
-0.000424991,151.031
0.00022471,161.353
-1.06931e-05,171.326
0.0011489,185.48
0.00273498,205.24
0.00258897,215.864
0.00224547,227.774
0.000279914,228.361
0.000684796,241.059
0.000996638,254.67
0.000874389,271.86
0.00210227,290.145
0.00255212,305.837
0.00361278,321.973
0.00346128,338.027
0.00211999,346.055
0.00238009,365.602
0.00397717,386.97
0.00335626,398.206
0.00230187,409.967
0.00128858,422.912
0.00146014,440.938
0.00188908,457.914
0.00174457,474.233
0.0020806,489.372
0.00386588,514.764
0.00418177,535.833
0.00325865,550.699
0.00483177,577.088
0.00429386,591.764
0.00461122,609.922
0.00529325,632.297
0.00512496,651.432
0.00549767,669.433
0.00580811,687.572
0.00472495,702.285
0.0037867,720.432
0.00394792,745.907
0.00532254,773.784
0.00600477,795.499
0.00648719,814.693
0.00411063,825.391
0.00623951,851.926
0.0041963,865.093
0.00694223,896.591
0.00525831,910.393
0.00471266,931.934
0.00500343,957.576
0.00713261,986.034
0.0067303,1001.07
0.00520886,1017.95
0.00707239,1046.42
0.00792173,1069.31
0.0059915,1080.58
0.00576488,1105.19
0.00679968,1132.06
0.00849216,1159.4
0.00842635,1179.89
0.00841856,1197.42
0.00777106,1209.31
0.00656465,1229.03
0.00897343,1259.93
0.00742966,1271.6
0.00831809,1301.88
0.00747556,1313.36
0.00963999,1336.08
0.00955103,1346.56
0.00759729,1354.31
0.00840471,1377.91
0.00994261,1403.85
0.0102736,1421.52
0.00932453,1438.53
0.00876243,1448.37
0.0104819,1476.79
0.00862223,1488.18
0.00901752,1503.48
0.0101787,1536.24
0.00852738,1545.89
0.0103461,1570.67
0.0105858,1594.91
0.0086707,1602.63
0.0116615,1633.52
0.00931053,1646.01
0.0117149,1679.8
0.0106441,1694.68
0.00976652,1710.26
0.0119426,1733.47
0.00982471,1746.72
0.0112679,1778.54
0.0123943,1803.21
0.01003,1811.54
0.0107042,1835.31
0.0109924,1855.66
0.0121824,1882.71
0.0133584,1907.97
0.0113547,1920.06
0.0111593,1942.37
0.0137041,1972.7
0.0115957,1981.05
0.0139565,2016.84
0.0122649,2030.44
0.0135084,2055.22
0.0141817,2078.47
0.0124046,2093.66
0.0146412,2128.48
0.0122041,2140.91
0.0135817,2165.38
0.0142569,2193.64
0.0149408,2213.01
0.0130267,2230.53
0.0155815,2266.18
0.0158379,2288.48
0.016208,2307
0.0159056,2326.36
0.0136974,2344.69
0.0160181,2382.29
0.0152627,2401.48
0.0147336,2416.19
0.0160218,2444.6
0.0170377,2473.03
0.0168773,2494.62
0.01726,2520.54
0.0161974,2536.74
0.0153382,2553.74
0.0151979,2582.05
0.0154442,2604.35
0.0156963,2626.88
0.0160465,2648.48
0.0157973,2674.98
0.0181119,2710.82
0.018917,2734.18
0.0188011,2755.09
0.0188602,2780.12
0.019177,2806.82
0.0192743,2828.15
0.0181352,2843.33
0.0178111,2865.45
0.0173717,2894.39
0.018248,2921.67
0.0185599,2942.98
0.0201768,2972.08
0.0188555,2988.9
0.0184985,3014.87
0.0193676,3040.03
0.0209053,3068.6
0.0200256,3086.94
0.0191928,3106.83
0.0199188,3127.45
0.0193622,3148.19
0.0215801,3186.87
0.0192878,3196.07
0.0222412,3226.68
0.0202574,3239.2
0.0208422,3268.71
0.0220615,3290.26
0.0224965,3307.59
0.0204748,3322.48
0.0202218,3340.97
0.0203661,3357.85
0.0210924,3381.54
0.021868,3409.43
0.0235763,3429.86
0.023142,3443.42
0.0211927,3459.34
0.0237323,3487.13
0.022019,3490.95
0.0237051,3517.07
0.0232322,3532.56
0.0224215,3548.06
0.0239322,3565.51
0.022027,3582.21
0.0246806,3608.46
0.0224508,3612.36
0.0249278,3641.05
0.0233074,3652.91
0.0228307,3666.2
0.0253483,3690.9
0.0225538,3701.31
0.0254321,3728.31
0.0251934,3737.94
0.0231508,3751.22
0.0240694,3774.26
0.0257562,3792.26
0.0235781,3802.9
0.0256835,3830.46
0.0253544,3843.3
0.0238105,3854.64
0.0263845,3880.66
0.0253637,3893.77
0.0247053,3906.75
0.0264961,3934.62
0.0244328,3937.1
0.0259409,3958.86
0.0257917,3978.41
0.0250145,3984.44
0.0267215,4009.7
0.0275586,4030.11
0.0267386,4042.46
0.0257155,4056.75
0.0267496,4075.07
0.0274395,4092.58
0.025657,4106.2
0.0282414,4128.68
0.0259951,4133.54
0.0282217,4165.26
0.0260057,4168.27
0.0283096,4189.85
0.02781,4212.62
0.0269226,4218.11
0.0278005,4238.18
0.0289641,4264.27
0.0269483,4267.45
0.0290144,4291.7
0.0267028,4303.11
0.0279727,4317.13
0.0295433,4347.3
0.028898,4361.46
0.0281028,4375.31
0.0275715,4390.06
0.0296537,4411.99
0.0297631,4428.1
0.0285215,4440.33
0.0280574,4452.95
0.0282446,4476.6
0.0303754,4495.88
0.0282949,4505.31
0.0305003,4532.22
0.0282286,4536.14
0.0306366,4570.11
0.0287415,4572.09
0.0314789,4604.71
0.0289976,4609.04
0.0305385,4629.68
0.0294225,4648.86
0.0302379,4661.29
0.0321065,4692.22
0.0300162,4697.53
0.0302493,4713.95
0.0323237,4744.12
0.0302369,4750.92
0.0317883,4775.05
0.032615,4796.93
0.0310035,4812.9
0.0309614,4826.55
0.0323444,4851.34
0.0333445,4875.24
0.0336594,4888.6
0.0336392,4911.05
0.0318015,4915.86
0.0312987,4939.74
0.032986,4963.98
0.0333068,4981.23
0.0330145,4999.09
0.0329989,5018.53
0.0326495,5036.28
0.0325568,5050.22
0.0340025,5085.6
0.0334323,5093.63
0.0326098,5115.74
0.0340404,5137.73
0.034604,5164.09
0.0348313,5177.52
0.0330723,5193.87
0.0346926,5221.49
0.0357173,5240.75
0.0356532,5259.94
0.0346069,5274.48
0.0359009,5300.89
0.036496,5322.89
0.0362502,5340.41
0.0368491,5360.14
0.0370062,5384.97
0.037154,5404.06
0.0356104,5418.81
0.0350122,5432.89
0.0354076,5459.66
0.0362694,5476.91
0.0379698,5512.5
0.0373205,5526.37
0.0359019,5542.28
0.0373266,5561.91
0.0364326,5585.65
0.0378666,5608.22
0.0373545,5631.11
0.0377446,5648.87
0.0389936,5682.87
0.0390722,5698.41
0.0388144,5724.92
0.0373571,5736.08
0.0400429,5791.89
0.0402971,5811.28
0.0405004,5825.92
0.0379635,5838.49
0.0387407,5858.5
0.0383551,5881.09
0.0385672,5900.43
0.0391972,5929.77
0.0388756,5948.12
0.0395152,5975.3
0.0414256,6006.36
0.0418822,6029.42
0.0425888,6055.83
0.0425519,6074.77
0.0416364,6095.66
0.0406551,6110.79
0.040465,6137.22
0.0407193,6159.1
0.0413189,6185.96
0.0436106,6217.3
0.0437308,6241.42
0.0420099,6257.08
0.0415195,6279.39
0.042046,6308.01
0.0429876,6335.15
0.0433522,6360.87
0.045101,6389.51
0.0451639,6413.92
0.0441499,6434.02
0.0433346,6451.89
0.0446637,6486.62
0.045853,6514.52
0.0467238,6542.35
0.0467774,6568.78
0.0468137,6587.72
0.0464603,6614.27
0.0444979,6628.82
0.0458324,6661.79
0.0477919,6693.66
0.0477083,6715.08
0.0468665,6737.24
0.0461639,6757.92
0.0463288,6788.59
0.0465938,6817.83
0.0473417,6839.52
0.0484599,6873.24
0.0492521,6900.84
0.0497826,6924.64
0.0493324,6951.9
0.0498068,6976.29
0.0495869,6998.22
0.0478326,7022.05
0.0500865,7053.61
0.0506111,7082.19
0.0505287,7111.03
0.0499292,7126.94
0.0506643,7163.26
0.0523197,7194.82
0.0520696,7215.6
0.0503058,7239.76
0.0532749,7278.21
0.0514275,7298.14
0.0529507,7327.5
0.0521179,7353.53
0.0540963,7386.88
0.0519986,7404.27
0.0538165,7440.17
0.0547077,7467.83
0.0537547,7497.34
0.0541495,7518.73
0.0552509,7553.83
0.0558203,7583.21
0.0540144,7600.79
0.0567171,7637.86
0.0555659,7664.47
0.0547456,7682.63
0.0573576,7722.09
0.0567506,7752.27
0.0562237,7772.33
0.0568101,7804.65
0.0565102,7830.18
0.0585441,7864.14
0.0587839,7892.47
0.0578691,7920.82
0.057332,7945.85
0.0589562,7976.38
0.0604564,8013.27
0.060347,8047.62
0.0587508,8062.49
0.0587325,8089.62
0.0594241,8121.99
0.0603402,8155.46
0.0623458,8190.32
0.0629316,8223.64
0.0626706,8253.6
0.0609869,8277.37
0.0621049,8302.84
0.0638567,8340.63
0.0631635,8370.5
0.0624131,8396.13
0.0638181,8425.25
0.065361,8466.42
0.0638468,8487.26
0.0644777,8520.21
0.0657828,8553.32
0.0657089,8580
0.0647896,8609.52
0.0649866,8641.79
0.0675753,8679.65
0.0683753,8709.4
0.0687821,8745.74
0.0691943,8777.9
0.0695644,8808.02
0.0698341,8839.2
0.0687821,8867.95
0.0695513,8898.79
0.0710975,8933.16
0.0702502,8961.11
0.0696304,8985.63
0.0718511,9027.43
0.0725056,9063.75
0.0706794,9081.16
0.0716995,9111.18
0.0739178,9153.2
0.0727519,9186.21
0.0737019,9214.78
0.0753637,9249.39
0.0738941,9270.92
0.0767949,9316.875
0.0743735,9340.15
0.0776676,9383.23
0.0761228,9403.42
0.0762434,9437.66
0.0760041,9467.02
0.0792573,9507.83
0.0777326,9536.25
0.0792494,9572.91
0.0806466,9606.13
0.0791089,9627.67
0.0805817,9664.57
0.0820784,9705.82
0.0808323,9727.96
0.0821316,9760.3
0.0828478,9797.47
0.0833752,9824
0.0850995,9864.68
0.0852817,9898.3
0.0838206,9919.67
0.0843658,9949.55
0.0859648,9985.08
0.0874527,10021.2
0.0880432,10055
0.0894211,10091.1
0.0893015,10120.1
0.0882682,10147.1
0.0896615,10184
0.0909986,10216.1
0.0903316,10243
0.0908986,10276.9
0.0914917,10310.7
0.091989,10343
0.0933078,10375.8
0.0957662,10415.1
0.0961285,10447.9
0.0964528,10477
0.0953653,10495.5
0.0958689,10527.9
0.0971681,10565
0.0978227,10599.1
0.0988368,10632.3
0.0994013,10667.9
0.101438,10700.7
0.102386,10732.4
0.10292,10761.1
0.104433,10796.7
0.105918,10829.9
0.106798,10861.5
0.107491,10891
0.107576,10919.8
0.107691,10951.2
0.109379,10982.4
0.110699,11017.9
0.111624,11044.8
0.110795,11069.1
0.112074,11101.3
0.114639,11137.1
0.116077,11163.8
0.114718,11187.4
0.117156,11224.6
0.119599,11257.6
0.120187,11284.1
0.121249,11314.1
0.122958,11345.3
0.121998,11367.8
0.123766,11403.9
0.126309,11437
0.125933,11455.8
0.126271,11479.5
0.127487,11507.9
0.13106,11546.6
0.13038,11563.7
0.13403,11597.9
0.133955,11620.8
0.136405,11645.7
0.136721,11670.3
0.139718,11700.3
0.139134,11716.9
0.140477,11743.9
0.144154,11772.3
0.143607,11795.9
0.147705,11828.1
0.147166,11842
0.148619,11868.9
0.15145,11894.9
0.153816,11921.1
0.156446,11945.1
0.158116,11966.6
0.160415,11989.9
0.161264,12009.9
0.164001,12034.9
0.165369,12047.9
0.167917,12074.7
0.169591,12091.3
0.170016,12105.2
0.173059,12124.7
0.174775,12145.5
0.177027,12160.6
0.180382,12185.1
0.180775,12193.9
0.184399,12215.7
0.187301,12238.6
0.190306,12258.7
0.192641,12271.7
0.194488,12284.9
0.197168,12302.3
0.198843,12313.7
0.202316,12330.9
0.205252,12344.8
0.20659,12351.2
0.208532,12362.7
0.21127,12375.3
0.214483,12392.1
0.2164,12397.5
0.219484,12406.8
0.22349,12422.7
0.226192,12435.4
0.228641,12444.7
0.23098,12452.3
0.236066,12473.9
0.238232,12475.5
0.240174,12484.4
0.243407,12493.7
0.24638,12503.3
0.25129,12517
0.254428,12530.7
0.255928,12527.3
0.261498,12544.5
0.267657,12700.4
0.276675,12777.2
0.288012,12788.7
0.302888,12812.4
0.313249,12827.3
0.325266,12836.3
0.338044,12854.3
0.351412,12871.6
0.363425,12885.1
0.376824,12899
0.39069,12912
0.402181,12916.1
0.413969,12922
0.42735,12935.3
0.440691,12946.9
0.453961,12950.8
0.467498,12962.9
0.481121,12971.5
0.494993,12977.2
0.510331,12994.9
0.524146,13001.9
0.537407,13001.2
0.549973,13004.7
0.563921,13011
0.576312,13013.8
0.592676,13037.4
0.606294,13035.8
0.61807,13031.8
0.634568,13047.7
0.645768,13044.5
0.661977,13053.8
0.676632,13062.7
0.690354,13064
0.703439,13059.7
0.716641,13066.8
0.730715,13070.8
0.745066,13072.8
0.759446,13078
0.773497,13080.8
0.788117,13085.5
0.804477,13098.5
0.815941,13092.9
0.832374,13104.3
0.845094,13099.5
0.859188,13107.2
0.875318,13115.5
0.890137,13123.3
0.903468,13119.1
0.917888,13119.8
0.931141,13120.9
0.94585,13128.6
0.962274,13137.2
0.975087,13131.5
0.989211,13133.9
1.00357,13132.4
1.01889,13144.2
1.03409,13152.5
1.04961,13152.4
1.06405,13157.4
1.07857,13161
1.09321,13158.7
1.10802,13163.8
1.12093,13163.7
1.13449,13159.7
1.15126,13171.3
1.16569,13174
1.18081,13174
1.1935,13173.2
1.20807,13177.2
1.22417,13180.8
1.23904,13182.5
1.25345,13180.5
1.27464,13180.2
1.29578,13192.5
1.31702,13196.4
1.33807,13189
1.35931,13185.6
1.38046,13189.6
1.4016,13198.3
1.42284,13199.4
1.44398,13197.3
1.46513,13203.3
1.48632,13196.4
1.50746,13212.1
1.52856,13198.8
1.5498,13213.2
1.57099,13210.8
1.59204,13203.3
1.61337,13215.7
1.63447,13213.9
1.65562,13208
1.67681,13221.1
1.698,13213.4
1.7191,13222
1.74034,13214.75
1.76148,13228.5
1.78263,13214.1
1.80382,13225.7
1.82501,13230.9
1.84606,13222.3
1.86735,13223
1.88844,13235.9
1.90959,13223.7
1.93083,13232.3
1.95197,13240.7
1.97302,13225.2
1.99431,13241.8
2.0155,13233.4
2.0366,13242
2.05779,13235
2.07903,13245.1
2.10008,13234.9
2.12132,13237.9
2.14246,13238.6
2.16356,13246.5
2.1848,13245.9
2.20599,13242.8
2.22709,13240.2
2.24832,13242.3
2.26947,13253.4
2.29057,13252.5
2.31176,13247.2
2.333,13258.6
2.35405,13252.9
2.37533,13248.3
2.39648,13261.1
2.41758,13256.8
2.43877,13249
2.46001,13266.2
2.48106,13249.6
2.5023,13261
2.52339,13266.5
2.54454,13264.6
2.56578,13266.5
2.58701,13261.6
2.60807,13259
2.6293,13259.1
2.65045,13258.5
2.67155,13257.2
2.69278,13257.7
2.71398,13261
2.73503,13259.9
2.75631,13265.8
2.7775,13261.2
2.79865,13268.2
2.81984,13260.8
2.84103,13266
2.86208,13272.8
2.88327,13271.5
2.90447,13276.7
2.92556,13270.3
2.9468,13265.3
2.96799,13270.8
2.98909,13274.8
3.01028,13266.2
3.03147,13268.3
3.05257,13270.9
3.07376,13275.1
3.09496,13275
3.11605,13282.9
3.13729,13282.7
3.15848,13278.9
3.17963,13274.6
3.20077,13278.3
3.22201,13280
3.24311,13271.7
3.26435,13270.7
3.28549,13272.7
3.30664,13274.1
3.32778,13283.7
3.34897,13284
3.37012,13289.9
3.39131,13276
3.4125,13275.7
3.4336,13289.1
3.45479,13281.2
3.47593,13274
3.49708,13279
3.51827,13276.4
3.53946,13282.7
3.56061,13287.9
3.5818,13284.2
3.60299,13286.5
3.62414,13277.6
3.64528,13284.3
3.66642,13280
3.68762,13281.8
3.70881,13287.4
3.73,13278.8
3.75114,13292.2
3.77233,13279.5
3.79343,13295.7
3.81462,13283.8
3.83582,13287.6
3.85696,13287.9
3.87806,13289.6
3.8993,13287.1
3.92049,13290.6
3.94163,13281.3
3.96282,13289
3.98402,13280.625
4.00511,13293.2
4.02631,13280.6
4.04745,13289.4
4.06864,13285.7
4.08983,13282.4
4.11093,13289.5
4.13212,13284.6
4.15331,13284.9
4.17446,13281.6
4.1956,13282.1
4.21679,13288.3
4.23789,13292.8
4.25908,13281.6
4.28032,13283.8
4.30147,13293.1
4.32266,13284.9
4.3438,13292.8
4.36495,13293.1
4.38609,13288.2
4.40728,13283.5
4.42843,13287.4
4.44962,13283.2
4.47081,13291.2
4.49196,13289.4
4.51315,13294
4.53434,13296.2
4.55544,13286.3
4.57658,13286
4.59782,13293.6
4.61892,13293.7
4.64016,13281.8
4.6613,13291.4
4.68245,13290.6
4.70364,13284.2
4.72478,13296.1
4.74597,13281.6
4.76717,13291
4.78836,13296.4
4.80941,13280.8
4.8306,13284.6
4.85179,13293.1
4.87289,13282
4.89417,13280.8
4.91532,13292.2
4.93646,13293.8
4.95766,13286.5
4.97885,13282.1
4.99994,13290.9
5.02114,13280.3
5.04233,13295.5
5.06343,13291.4
5.08466,13292.5
5.10586,13290
5.12691,13280.4
5.14815,13283.4
5.16929,13293.5
5.19039,13289.2
5.21163,13287.8
5.23282,13279.7
5.25392,13283.7
5.27515,13285.6
5.29634,13280.2
5.31744,13290.6
5.33863,13278.3
5.35983,13289
5.38088,13279.3
5.40216,13280.6
5.42335,13288.6
5.44445,13284.9
5.46569,13276.5
5.48688,13288.1
5.50798,13275.4
5.52917,13283.4
5.55036,13275.5
5.57146,13287
5.5926,13274.1
5.61384,13284.9
5.63494,13275.1
5.65618,13272.3
5.67737,13286.7
5.69842,13284.8
5.71961,13275.8
5.74085,13285.5
5.76195,13271.8
5.78319,13282.1
5.80433,13278.9
5.82543,13284.3
5.84662,13280.8
5.86786,13280.5
5.88896,13271.25
5.91015,13281.8
5.93134,13270.2
5.95244,13272.1
5.97368,13270.8
5.99487,13276.7
6.01597,13269.7
6.03716,13271.4
6.05835,13278.1
6.07945,13266
6.10064,13276.7
6.12188,13266
6.14293,13278
6.16417,13267.2
6.18531,13275.8
6.20646,13263.6
6.22769,13272.8
6.24884,13275.5
6.26994,13267.5
6.29118,13265
6.31237,13276.2
6.33347,13257.4
6.35466,13273.5
6.37585,13267.8
6.3969,13263.9
6.41818,13272.9
6.43938,13267.3
6.46047,13259.8
6.48162,13259.5
6.50286,13270.4
6.52391,13264.6
6.54515,13267.7
6.56629,13267.6
6.58748,13256.4
6.60863,13265.7
6.62986,13268.1
6.65101,13262.2
6.6722,13263.5
6.69335,13259.7
6.71449,13255.8
6.73568,13266.4
6.75687,13261.1
6.77797,13252.4
6.79926,13259.1
6.82035,13261
6.8415,13261.9
6.86264,13262.6
6.88388,13259.4
6.90498,13252.1
6.92617,13247.7
6.94732,13256.3
6.96846,13255.6
6.98965,13253.2
7.01084,13244.3
7.03199,13240.6
7.05318,13249.3
7.07433,13252.8
7.09552,13243
7.11666,13253.1
7.13785,13237.1
7.159,13246
7.18019,13245.4
7.20133,13252.1
7.22248,13239
7.24367,13245.5
7.26486,13248.1
7.28596,13248
7.3072,13243.2
7.3283,13247
7.34949,13237.4
7.37063,13239.1
7.39178,13241.1
7.41297,13233.7
7.43416,13240
7.45535,13237.1
7.47645,13233
7.49764,13237.9
7.51883,13235.3
7.53993,13240.6
7.56117,13229.7
7.58231,13230.5
7.6035,13226.8
7.62465,13241.9
7.64579,13231.5
7.66694,13233.5
7.68818,13226
7.70928,13227.8
7.73047,13226.2
7.75161,13228.3
7.77276,13233
7.79395,13223.9
7.81519,13221.2
7.83633,13226.9
7.85748,13229.8
7.87867,13219.4
7.89981,13216.7
7.92096,13217.4
7.94219,13218.6
7.96329,13218.6
7.98448,13221.8
8.00568,13219
8.02682,13218.5
8.04797,13210.6
8.0692,13211.8
8.0903,13217.3
8.11145,13218.1
8.13268,13216.7
8.15383,13215.8
8.17502,13214.3
8.19621,13207
8.21731,13213.3
8.23845,13213.8
8.25969,13208.4
8.28084,13205.5
8.30198,13212.3
8.32322,13200
8.34437,13200.2
8.36551,13208.9
8.3867,13199.2
8.40785,13199.4
8.42899,13207.9
8.45018,13197.7
8.47128,13207.9
8.49247,13199.3
8.51366,13195.8
8.53476,13197.5
8.55595,13198.1
8.57719,13200.7
8.59834,13200.6
8.61953,13196.3
8.64072,13196.2
8.66182,13186.3
8.68296,13194.9
8.7042,13183.5
8.7253,13188.6
8.74649,13186.4
8.76768,13193.5
8.78883,13184.3
8.80997,13191.3
8.83121,13186.7
8.85231,13178.7
8.87345,13174.6
8.89464,13178
8.91574,13181.4
8.93698,13182.7
8.95822,13171.8
8.97932,13183.7
9.00046,13177
9.0217,13168.9
9.0428,13177.7
9.06394,13169.5
9.08518,13172.9
9.10628,13167
9.12742,13175.8
9.14866,13162.1
9.16981,13175.3
9.19095,13170.9
9.21214,13163.3
9.23324,13162.6
9.25443,13157.1
9.27562,13154.5
9.29677,13156.8
9.31796,13158.7
9.3392,13162.9
9.36034,13158.7
9.38144,13150.7
9.40272,13148.3
9.42382,13148.9
9.44497,13154.6
9.46616,13148.4
9.4873,13147.4
9.50849,13142.1
9.52968,13139.9
9.55083,13148.7
9.57193,13152.3
9.59317,13148
9.61431,13139.6
9.63546,13135.5
9.65665,13134.2
9.67779,13143.7
9.69894,13134
9.72022,13141.4
9.74137,13130.4
9.76246,13136.1
9.7837,13133.9
9.8048,13126.4
9.82599,13123.9
9.84718,13129.3
9.86833,13129.5
9.88947,13120.3
9.91066,13124.5
9.93186,13131.8
9.953,13118
9.97419,13123.7
9.99534,13114.9
10.0165,13119.5
10.0376,13118.8
10.0588,13110.9
10.08,13117.9
10.1012,13103.6
10.1223,13116.7
10.1434,13106.3
10.1647,13106.6
10.1859,13111.4
10.207,13096.8
10.2282,13100.2
10.2493,13098.3
10.2705,13095.9
10.2917,13088.1
10.3129,13100.9
10.334,13087
10.3552,13094.6
10.3763,13098.3
10.3975,13089.5
10.4187,13091.75
10.4398,13085.1
10.461,13088.75
10.4822,13087.4
10.5034,13091.3
10.5245,13088.2
10.5457,13084.4
10.5669,13080.5
10.588,13072.5
10.6091,13066.3
10.6304,13070.4
10.6515,13080.4
10.6727,13072
10.6939,13069.4
10.715,13067.6
10.7362,13061.4
10.7573,13055.8
10.7785,13053.4
10.7996,13056.1
10.8208,13062.6
10.842,13050.8
10.8632,13057.6
10.8844,13044
10.9054,13053.4
10.9266,13049.7
10.9478,13040.3
10.969,13052.7
10.9902,13037.7
11.0114,13043.4
11.0325,13040.7
11.0536,13034.2
11.0748,13033.9
11.096,13031.4
11.1171,13039.1
11.1383,13030.1
11.1595,13029.7
11.1807,13026.6
11.2018,13025.1
11.223,13013.5
11.2441,13017.5
11.2654,13021.4
11.2865,13022.8
11.3077,13005.1
11.3288,13005.5
11.35,13011.7
11.3711,13003.4
11.3924,13001.5
11.4135,13005.7
11.4346,12990.3
11.4559,13002.6
11.477,12997.7
11.4981,12987.6
11.5193,12992.9
11.5405,12981.2
11.5617,12978.5
11.5828,12988.2
11.604,12977.9
11.6252,12976.3
11.6464,12971.3
11.6675,12977.8
11.6887,12974.5
11.7098,12967.6
11.731,12966.3
11.7521,12966.8
11.7734,12959
11.7945,12960
11.8157,12957.1
11.8368,12949.2
11.858,12940.8
11.8791,12942.4
11.9003,12946.5
11.9215,12938.2
11.9427,12935.3
11.9638,12938.2
11.985,12929.2
12.0061,12918.5
12.0274,12926.5
12.0485,12917.5
12.0697,12911.4
12.0909,12912.3
12.1121,12907.4
12.1332,12910.6
12.1544,12897.7
12.1755,12890
12.1967,12894
12.2179,12888.4
12.2391,12889.8
12.2602,12889
12.2814,12877.3
12.3025,12881.8
12.3237,12882.7
12.3449,12872.5
12.3661,12857.6
12.3872,12867.9
12.4084,12862
12.4295,12845.4
12.4507,12856.4
12.4719,12842.7
12.4931,12845.8
12.5142,12841.6
12.5354,12827.8
12.5566,12829.9
12.5777,12827.5
12.5989,12815.1
12.6201,12822.5
12.6412,12809.8
12.6624,12811.6
12.6836,12802.9
12.7048,12795.9
12.7259,12784.9
12.7471,12783.8
12.7682,12787
12.7894,12769.9
12.8106,12770.4
12.8318,12771.9
12.8529,12757.4
12.8741,12758.7
12.8953,12745.3
12.9164,12751.3
12.9376,12729.7
12.9587,12740.1
12.9799,12721.3
13.0011,12723
13.0223,12714
13.0434,12713.3
13.0646,12695.9
13.0857,12699.3
13.1068,12686.2
13.1281,12684.2
13.1493,12679.1
13.1704,12663.4
13.1916,12664.8
13.2128,12656.8
13.2339,12649.9
13.2551,12646.2
13.2763,12640.9
13.2974,12627.9
13.3186,12609.3
13.3398,12614
13.3609,12607.8
13.3821,12597.5
13.4033,12587.1
13.4244,12575.6
13.4456,12577.5
13.4668,12562
13.488,12560.6
13.5091,12535.9
13.5303,12534
13.5515,12529.1
13.5726,12524.8
13.5939,12518.1
13.615,12508
13.6362,12497.9
13.6573,12475.8
13.6785,12476.8
13.6996,12461
13.7208,12454.8
13.742,12440.7
13.7632,12439.1
13.7843,12421.6
13.8055,12416.9
13.8267,12405.4
13.8479,12393.4
13.869,12385.6
13.8901,12366.1
13.9113,12355.6
13.9324,12343.9
13.9536,12340
13.9748,12330.1
13.9959,12313.8
14.0171,12298.4
14.0383,12290.9
14.0594,12278.5
14.0806,12262.4
14.1017,12247.4
14.1229,12237.3
14.1441,12234.1
14.1653,12220.9
14.1864,12199.9
14.2076,12188.7
14.2288,12179.3
14.2499,12162.3
14.2711,12139.9
14.2923,12140.2
14.3134,12122.4
14.3345,12099.7
14.3558,12094.4
14.377,12083.6
14.3981,12065
14.4193,12052.8
14.4405,12039.5
14.4615,12025.5
14.4828,11993.9
14.5039,11985.8
14.5251,11975.1
14.5463,11955.2
14.5674,11943.4
14.5887,11918.6
14.6098,11901
14.631,11886.4
14.6521,11871.6
14.6733,11849.4
14.6945,11834.8
14.7156,11818.2
14.7369,11809.2
14.758,11784
14.7792,11764.5
14.8003,11740.7
14.8215,11723
14.8427,11712.4
14.8638,11696.7
14.885,11663.4
14.9062,11656.7
14.9274,11632.5
14.9485,11611.9
14.9697,11585.2
14.9909,11563
15.012,11548.4
15.0332,11532.9
15.0544,11498.6
15.0755,11476.8
15.0967,11459
15.1179,11435.8
15.1391,11410.6
15.1602,11388.7
15.1814,11364.4
15.2026,11345
15.2238,11328.2
15.2449,11304.3
15.2661,11279.3
15.2872,11255.3
15.3085,11231.8
15.3296,11205.5
15.3508,11181.5
15.3719,11153.3
15.3931,11123.2
15.4143,11101.6
15.4355,11064.9
15.4566,11034.5
15.4778,11016.4
15.499,10990.6
15.5202,10960
15.5413,10926.8
15.5625,10895.3
15.5837,10864.5
15.6049,10838.1
15.626,10801.4
15.6472,10779.9
15.6683,10753.5
15.6895,10716.3
15.7106,10686.2
15.7319,10654.2
15.753,10616.5
15.7742,10578.8
15.7953,10547.8
15.8165,10507.5
15.8377,10478
15.8589,10445.3
15.8801,10419.5
15.9012,10374.1
15.9224,10336.8
15.9435,10302.4
15.9647,10259
15.9859,10218.2
16.0071,10169.4
16.0282,10128.5
16.0494,10093.7
16.0706,10057.7
16.0917,10013.7
16.113,9972.51
16.1341,9929.27
16.1553,9879.2
16.1764,9838.49
16.1976,9791.48
16.2188,9742.58
16.24,9693.65
16.2611,9639.31
16.2823,9591.22
16.3035,9536.77
16.3247,9486.05
16.3458,9430.02
16.3671,9372.66
16.3882,9319.24
16.4093,9258.38
16.4306,9210.77
16.4517,9146.58
16.4729,9081.67
16.4941,9024.12
16.5153,8954.84
16.5364,8894.44
16.5576,8815.04
16.5788,8755.39
16.5999,8669.57
16.6211,8597.51
16.6423,8528.46
16.6635,8436.66
16.6847,8347.95
16.7058,8268.16
16.727,7956.62
16.7484,6885.52
16.7697,5350.05
16.791,4555.59
16.8124,2945.43
16.8337,2109.78
16.8549,1607.86
16.8762,1324.19
16.8812,1251.66