File: data/PrimaryData/Steel_1018/Tensile_003.csv
Displacement (mm),Load (N)
0.000414736,0.0882291
0.000419141,2.10797
0.000372513,1.89027
0.000771052,6.20943
0.000524658,6.33559
0.000688177,9.20023
0.000301022,12.0706
0.000404827,14.7135
0.000511868,14.7078
0.000436958,16.0559
0.000310367,19.7593
0.000480079,23.9274
0.000709425,29.3962
0.00077453,32.7801
0.000463991,37.4502
0.000793045,42.4301
0.000605553,48.3418
0.000415626,54.454
0.000828532,60.2681
0.000670267,67.5511
0.000750198,70.8912
0.000961048,78.2178
0.000970327,85.0918
0.000855089,93.0766
0.000839179,98.3867
0.00104713,106.575
0.00109634,114.899
0.000944656,123.081
0.00111713,131.13
0.00118207,139.613
0.00128945,149.711
0.0010857,158.518
0.00122573,169.992
0.00141251,180.622
0.001468,193.126
0.0018178,205.223
0.00150852,219.318
0.00161816,230.302
0.00185931,243.957
0.00181204,256.576
0.00197899,268.737
0.00202425,280.78
0.00204428,293.067
0.001886,305.315
0.00216749,318.245
0.0021964,330.06
0.00243878,343.607
0.00243315,357.952
0.00254365,372.853
0.00251955,388.28
0.00264641,403.473
0.00281727,418.763
0.00276593,431.546
0.0029511,446.015
0.00296583,458.063
0.00307727,470.351
0.00288648,482.422
0.0031103,496.178
0.00339239,506.356
0.00358408,520.207
0.00347533,533.728
0.00353013,546.02
0.00363296,558.816
0.00371372,572.277
0.00390624,582.306
0.00385354,592.708
0.00396116,602.405
0.00401559,615.132
0.00421323,624.653
0.00410064,637.722
0.00416566,648.296
0.00431081,661.882
0.00423954,671.579
0.00447293,682.792
0.00442876,693.045
0.00442854,701.038
0.00460094,708.137
0.00466611,707.831
0.00450433,693.195
0.00450829,679.36
0.00433052,668.06
0.00446565,660.921
0.00435897,657.321
0.00434169,654.648
0.00446878,655.8
0.00453356,658.597
0.00447973,662.986
0.00457366,670.711
0.00435048,676.238
0.0045441,683.378
0.00443854,689.179
0.00450007,692.005
0.00484486,697.998
0.00467398,704.888
0.00469388,711.627
0.00493704,722.145
0.00512303,730.159
0.00493747,736.225
0.00490241,741.592
0.00519525,747.491
0.00508905,754.792
0.00537646,763.316
0.00530205,772.671
0.00547119,781.857
0.00519403,784.833
0.00533895,791.519
0.00535137,798.753
0.0053637,806.382
0.00549063,815.059
0.0056513,822.872
0.00557013,830.49
0.0057847,835.38
0.00568425,843.282
0.00577228,853.073
0.00591533,862.503
0.00596075,871.986
0.00608828,878.833
0.0058667,884.377
0.00610976,893.075
0.00621956,901.127
0.0061178,913.728
0.00616673,921.967
0.00622504,928.32
0.00642005,935.984
0.00649324,943.618
0.00651104,956.813
0.00635311,967.668
0.00656805,975.94
0.00659803,980.384
0.00671663,988.408
0.00650952,998.337
0.00704423,1010.91
0.00697853,1018.86
0.00717793,1026.33
0.00724862,1034.45
0.00734317,1045.49
0.00731356,1056.54
0.00739639,1065.45
0.00755,1072.06
0.0075172,1081.25
0.00742076,1093.34
0.0075717,1106.14
0.00785779,1114.41
0.00793702,1122.48
0.00775852,1131.07
0.00784859,1145.13
0.00797973,1156.43
0.00805322,1164.88
0.00807339,1172.49
0.00819219,1182.69
0.0081559,1198.81
0.00848511,1205.96
0.00847324,1212.97
0.00854952,1223.06
0.00839863,1235.79
0.00863311,1242.72
0.00854396,1248.47
0.0086548,1257.05
0.00903219,1271.84
0.00905565,1284.96
0.00917047,1290.92
0.00905631,1300.51
0.00933152,1313.33
0.00934382,1326.33
0.00934795,1336.85
0.00947574,1344.81
0.00966124,1357.76
0.00977202,1373.78
0.0098701,1382.24
0.00972469,1390.35
0.0100842,1404.12
0.0101737,1417.45
0.0101792,1426.16
0.0100825,1434.91
0.010374,1449.77
0.0104512,1463.27
0.0104739,1471.43
0.0107418,1483.12
0.0107349,1497.5
0.0107261,1508.31
0.010759,1517.66
0.0107637,1529
0.010955,1544.25
0.0109352,1556.17
0.0111545,1566.21
0.0113958,1580.62
0.0113643,1595.4
0.0114957,1604.39
0.0113951,1616.89
0.0115333,1633.08
0.0116571,1644.02
0.0117475,1654.44
0.0117582,1670.38
0.0120832,1683.82
0.0120148,1692.89
0.0121025,1707.02
0.0121526,1721.17
0.0122193,1731.9
0.0122702,1743.63
0.0125673,1761.51
0.0125101,1772.01
0.0125391,1783.1
0.0129715,1800.75
0.0130397,1812.4
0.0130858,1822.9
0.0130842,1839.53
0.0131569,1854.13
0.0135149,1864.74
0.0133787,1880.32
0.0135076,1893.11
0.0138218,1903.06
0.0133742,1918.54
0.0138575,1934.04
0.0138113,1944.89
0.0139673,1959.62
0.0138112,1974.36
0.0140783,1984.01
0.0142685,2001.3
0.0144734,2016.36
0.0146044,2029.14
0.014739,2044.51
0.0149585,2060.38
0.0149186,2069.79
0.0149895,2087.13
0.0150323,2103
0.0151709,2113.79
0.0152998,2133
0.015128,2145.46
0.0154123,2158.47
0.0156537,2175.43
0.0155378,2187.75
0.0157173,2202.59
0.0158968,2220.56
0.0162631,2230.83
0.016155,2248.73
0.0163633,2263.94
0.0163614,2274.12
0.0162061,2293.31
0.0165117,2306.24
0.0165159,2318.13
0.0165587,2336.06
0.0168694,2343.26
0.0168322,2360.35
0.0167791,2374.57
0.0168173,2385.49
0.0170806,2405.99
0.0171479,2415.08
0.0172249,2431.27
0.0176594,2445.59
0.0172427,2456.91
0.0175938,2477.03
0.017803,2487.99
0.0179156,2504.22
0.0177347,2520.05
0.0180051,2532.15
0.0180208,2552.14
0.0181785,2563.79
0.0180043,2580.94
0.0184309,2597.17
0.0183697,2610.68
0.0188053,2630.61
0.0190006,2642.99
0.0190618,2661.41
0.018824,2672.84
0.019174,2689.34
0.0191242,2707.65
0.0193768,2720.1
0.0195295,2738.84
0.0194484,2751.48
0.0197126,2771.36
0.0195596,2784.46
0.0198641,2803.87
0.0199053,2818.19
0.0200313,2833.29
0.0200849,2853.01
0.0201585,2864.7
0.0203242,2885.75
0.0204535,2897.4
0.0207995,2920.05
0.0210204,2934.67
0.0208976,2954.1
0.0210216,2969.01
0.0212128,2985.75
0.0212196,3002.29
0.0214745,3018.18
0.0214579,3037.37
0.0218202,3052.49
0.0219342,3072.19
0.021958,3084.59
0.0222615,3107.03
0.0222907,3121.52
0.0223648,3143.99
0.0225716,3157.46
0.0228331,3181.03
0.0228884,3193.49
0.0229357,3217.06
0.0229568,3227.81
0.0232208,3251.79
0.0232547,3264.2
0.023434,3287.54
0.0236463,3302.8
0.0237614,3322.95
0.0239246,3339.04
0.0242693,3363.67
0.0242117,3377.37
0.0244753,3401.39
0.0243098,3414.02
0.0246273,3440.23
0.0246753,3452.82
0.024909,3475.81
0.0248147,3491.03
0.0255038,3564.63
0.0255763,3550.35
0.0254928,3562.66
0.0254853,3583.63
0.0257851,3600.57
0.0261093,3623.2
0.0260941,3638.44
0.026237,3661.27
0.0264782,3678.99
0.026469,3702.38
0.0266653,3719.9
0.026905,3741.09
0.0269871,3762.24
0.0273002,3783.21
0.0275252,3805.16
0.0275641,3822.01
0.0277757,3845.84
0.0279087,3864.82
0.0281941,3887.85
0.0279695,3906.69
0.0284833,3929.25
0.0286492,3950.14
0.0289806,3970.11
0.0289675,3993.4
0.0289991,4012.28
0.0291912,4037.19
0.0295374,4055.51
0.0296335,4077.69
0.0297824,4102.32
0.0299966,4121.2
0.0301106,4145.78
0.0303261,4165
0.0306806,4188.81
0.0307326,4213.96
0.0310116,4233.57
0.0311868,4259.66
0.0313039,4279.15
0.0314906,4303.74
0.0318579,4325.92
0.0319213,4346.28
0.0321038,4371.75
0.0321682,4392.68
0.0324627,4418.31
0.0326399,4442.32
0.0329286,4464.23
0.0333187,4488.04
0.033298,4509.97
0.0334921,4533.66
0.0340296,4559.76
0.0339357,4578.22
0.034103,4603.86
0.0342823,4630.59
0.0343544,4650.59
0.0344696,4676.88
0.0351469,4701.22
0.0353548,4724.02
0.035445,4748.72
0.0354953,4770.56
0.0358953,4793.85
0.0363481,4820.94
0.0362503,4845.01
0.0366399,4869.5
0.0366807,4894.56
0.0370155,4915.13
0.03742,4941.92
0.0371034,4967.79
0.0378051,4989.06
0.0378364,5014.31
0.0382723,5041.86
0.0383047,5064.08
0.038693,5089.34
0.0385744,5115.47
0.0391055,5138.26
0.0393348,5164.15
0.0396499,5190.5
0.0399094,5215.82
0.0399578,5238.71
0.0403611,5268.86
0.0406608,5293.67
0.0408167,5314.77
0.0409065,5342.61
0.0412878,5371.72
0.0417058,5393.98
0.0416854,5419.72
0.042086,5450.26
0.0420856,5474.1
0.0425653,5499.98
0.0430228,5529.56
0.0431014,5555.51
0.0433061,5582.06
0.043834,5610.41
0.0439812,5636.64
0.043993,5664.48
0.0445148,5689.48
0.0446155,5717.74
0.0448806,5746.91
0.0453637,5774.37
0.0455806,5797.25
0.0458728,5828.21
0.0459896,5857.25
0.0466689,5880.74
0.0467355,5910.05
0.0469758,5938.01
0.0475424,5967.88
0.0476206,5993.33
0.0477036,6020.39
0.0482666,6048.76
0.0486089,6078.51
0.0486789,6108.13
0.0491766,6133.98
0.0495201,6164.62
0.0498783,6194.87
0.0500395,6222.36
0.0504359,6249.39
0.0505661,6278.4
0.0510355,6309.29
0.0515478,6340.84
0.0517296,6367.98
0.0520708,6394.24
0.0524109,6425.07
0.0524867,6454.24
0.052751,6486.15
0.0533287,6514.25
0.0537874,6541.12
0.0541951,6572.85
0.0544274,6604.11
0.0546862,6632.45
0.0550397,6660.88
0.0555835,6688.84
0.0555623,6720.7
0.0563182,6752.93
0.0565774,6783.52
0.0569258,6812.19
0.0574379,6842.47
0.0579587,6870.46
0.0580797,6901.22
0.0583545,6935.53
0.058956,6964.84
0.0593785,6995.81
0.0597695,7024.87
0.0598051,7053.06
0.060545,7084.81
0.0610957,7115.84
0.061205,7149.62
0.0616344,7180.18
0.0618856,7208.55
0.0626946,7239.73
0.0628746,7268.81
0.0633301,7300.31
0.0637417,7330.79
0.0642996,7363.72
0.0645687,7394.97
0.0650751,7425.24
0.0654409,7454.27
0.065878,7485.87
0.0663668,7517.24
0.0671719,7550.53
0.0673249,7584.55
0.0678035,7616.63
0.0683713,7647.19
0.0691243,7676.92
0.0691397,7707.1
0.0698631,7739.15
0.0701989,7770.96
0.0708193,7802.68
0.0714255,7835.43
0.0719066,7867.52
0.0722267,7901.03
0.0729506,7935.08
0.0734184,7966.68
0.0739263,7998.08
0.0744182,8030.21
0.0750636,8061.02
0.0755829,8093.86
0.0760813,8125.77
0.0765889,8160.31
0.0772788,8193.88
0.0778394,8226.61
0.0785024,8260.09
0.0788422,8294.01
0.0799352,8326.98
0.0802546,8360.11
0.0807294,8391.6
0.0815457,8425.01
0.0819131,8456.45
0.0827255,8487
0.0832179,8520.89
0.0839258,8552.99
0.0847397,8586.16
0.085213,8617.09
0.0859229,8650.91
0.0865392,8680.84
0.0873299,8716.52
0.0880196,8750.09
0.0888799,8783.77
0.0894927,8816.06
0.0902475,8848.93
0.0909121,8881.88
0.0916085,8914.63
0.0925424,8948.83
0.0933976,8982.27
0.0940445,9014.96
0.094927,9046.69
0.0958843,9077.54
0.0964651,9110.83
0.0975191,9142.55
0.0982168,9176.78
0.0990078,9206.9
0.0999082,9238.89
0.100931,9270.99
0.101867,9304.5
0.102945,9337.38
0.10346,9368.05
0.10485,9399.2
0.105564,9430.64
0.106434,9461.88
0.107608,9493.05
0.108484,9525.23
0.109466,9554.2
0.110848,9584.62
0.111657,9615.44
0.11283,9646.9
0.113956,9676.82
0.115131,9707.97
0.11647,9736.84
0.117559,9765.12
0.118755,9797.43
0.119882,9826.28
0.120877,9856.03
0.122397,9885.03
0.123573,9915.57
0.125124,9942.84
0.126439,9971.82
0.127891,10000.6
0.129402,10031.3
0.130454,10059.9
0.132105,10089.3
0.133954,10116.8
0.135267,10145.6
0.136849,10171.9
0.138549,10200.6
0.140254,10226.6
0.141629,10249.8
0.143492,10276.9
0.145535,10300.2
0.147112,10324.3
0.148839,10348.1
0.150691,10373.1
0.152828,10394.8
0.154859,10420.9
0.156926,10442.7
0.158887,10466.9
0.160803,10488
0.163236,10511.5
0.16517,10533.4
0.167532,10555.3
0.169638,10574.4
0.171898,10593.7
0.174311,10612.8
0.176773,10629.7
0.179485,10648.9
0.181592,10665.8
0.184336,10684.4
0.186726,10701.6
0.189883,10808.7
0.197544,10933.3
0.206579,10976.6
0.216143,11012.8
0.225733,11051.5
0.235994,11084.1
0.246034,11114.5
0.256926,11145.4
0.267748,11168.7
0.278653,11192
0.289998,11213.9
0.301479,11234.9
0.31335,11253
0.325273,11270.8
0.337297,11286.5
0.349638,11299.5
0.362035,11313.1
0.374387,11324.9
0.387134,11335.7
0.399875,11349
0.412572,11356.5
0.42532,11367.9
0.438545,11375.7
0.451601,11384.8
0.464586,11392.3
0.477872,11400.1
0.490921,11407.8
0.504499,11415.3
0.517888,11424.2
0.531542,11427.5
0.545003,11433
0.558353,11438.4
0.571863,11446.4
0.585533,11453.1
0.599369,11457.9
0.613053,11461.7
0.62685,11467.4
0.640474,11469.4
0.654466,11478.1
0.667878,11481.2
0.681696,11482.9
0.695557,11490.5
0.709478,11494.5
0.723475,11499.5
0.737574,11504.9
0.751773,11506.8
0.765709,11509.7
0.779866,11513.2
0.793832,11519.1
0.807695,11519.8
0.821816,11524.9
0.836108,11526.2
0.850177,11527.6
0.864572,11534.2
0.878445,11536.8
0.892625,11538.9
0.906904,11540.6
0.921235,11544.9
0.935184,11546.5
0.949456,11551.4
0.963876,11555.6
0.978244,11555.2
0.992467,11557.9
1.00687,11561.3
1.02129,11562.3
1.03567,11568.1
1.05018,11568.9
1.06447,11568.8
1.07892,11573.1
1.09324,11576.1
1.10778,11578
1.1223,11578.1
1.13681,11580.2
1.15093,11579.8
1.16548,11583.1
1.17981,11586.5
1.19431,11583.6
1.20875,11589.6
1.22345,11591.4
1.23825,11591.7
1.25339,11595.5
1.27463,11598
1.29573,11596.6
1.31697,11599.2
1.33816,11602.5
1.3593,11600.3
1.38045,11603.9
1.40159,11608.8
1.42283,11605.2
1.44398,11607.1
1.46517,11609.1
1.48627,11608.2
1.50746,11610.4
1.52865,11615
1.54979,11612
1.57098,11613.8
1.59213,11616.7
1.61327,11617.6
1.63447,11618.2
1.65566,11623.5
1.6768,11618.7
1.69795,11621.6
1.71914,11624.4
1.74024,11623.1
1.76147,11625.3
1.78262,11626.8
1.80376,11625.8
1.82496,11628.1
1.84615,11630.5
1.86729,11629.7
1.88848,11628.3
1.90963,11631.1
1.93077,11628.7
1.95196,11632.8
1.97316,11634.8
1.9943,11633.9
2.01545,11634
2.03668,11637.2
2.05773,11635
2.07893,11635.6
2.10012,11640.8
2.12126,11638.5
2.1425,11637.4
2.16365,11642.1
2.18479,11640.2
2.20598,11640.5
2.22717,11643.4
2.24827,11640.4
2.26946,11640.8
2.29065,11644.2
2.31175,11643
2.33299,11643.3
2.35418,11645.9
2.37528,11645.5
2.39642,11644.8
2.41762,11651
2.43876,11647.1
2.45995,11647.6
2.4811,11647.8
2.50224,11648
2.52343,11650.1
2.54462,11649.6
2.56572,11650.8
2.58696,11647.4
2.60815,11651
2.62925,11649.6
2.65044,11649
2.67163,11652.6
2.69273,11649.1
2.71402,11650.3
2.73516,11654
2.75626,11651.9
2.77745,11653.2
2.79869,11653.8
2.81974,11653.5
2.84098,11653.7
2.86212,11654.2
2.88322,11654.6
2.90451,11654.8
2.92565,11652.8
2.94679,11654.9
2.96799,11653.8
2.98918,11656.4
3.01028,11655.4
3.03147,11652.7
3.05271,11652.6
3.07376,11653.8
3.09499,11655.2
3.11619,11656.2
3.13728,11657.8
3.15848,11655.5
3.17971,11655.9
3.20077,11657.5
3.222,11656.8
3.24315,11657.4
3.26429,11656.1
3.28548,11656.9
3.30668,11657.5
3.32777,11658.3
3.34901,11658
3.3702,11656.2
3.39126,11655.2
3.41245,11655.8
3.43364,11656
3.45474,11658.6
3.47597,11657.1
3.49717,11657.3
3.51831,11656.9
3.53941,11657.8
3.56065,11657.5
3.58174,11657.4
3.60294,11656.9
3.62413,11656.1
3.64523,11656.2
3.66642,11657.1
3.68766,11656.1
3.70875,11657.1
3.72994,11656.5
3.75114,11656.4
3.77223,11656.1
3.79343,11657
3.81462,11654.3
3.83572,11653.7
3.85695,11656
3.87814,11653.1
3.89929,11657.2
3.92043,11656.9
3.94167,11654.7
3.96272,11654.3
3.98396,11656.4
4.00506,11655.5
4.02625,11653.8
4.0474,11655.7
4.06863,11652.5
4.08978,11654
4.11097,11655.9
4.13216,11652
4.15326,11652.8
4.17445,11653.1
4.19564,11651.1
4.21669,11651.1
4.23798,11652.8
4.25912,11651.1
4.28032,11651.2
4.30146,11653
4.32265,11651.3
4.34375,11651.2
4.36499,11655.3
4.38613,11649.4
4.40732,11649.7
4.42847,11652.7
4.44961,11649
4.47081,11651.7
4.49204,11650.3
4.51314,11648.4
4.53429,11647.2
4.55543,11647.8
4.57662,11647.2
4.59777,11646
4.61901,11648.8
4.64015,11643.9
4.6613,11646.9
4.68244,11648.9
4.70363,11647.8
4.72478,11645.4
4.74597,11645.4
4.76707,11643.9
4.78826,11643.6
4.8094,11645.7
4.83064,11644.5
4.85178,11641
4.87302,11644.3
4.89412,11642.2
4.91527,11641
4.93646,11643.6
4.95765,11640.5
4.97875,11638.3
4.99998,11641
5.02108,11639.7
5.04232,11640.6
5.06351,11641.2
5.08461,11639.1
5.10575,11637.5
5.12695,11640
5.14804,11639.6
5.16928,11637.1
5.19047,11639.6
5.21162,11635.1
5.23276,11635.6
5.254,11635.9
5.2751,11633.9
5.29629,11633.8
5.31753,11633.6
5.33863,11632.7
5.35977,11630.9
5.38096,11634
5.40211,11633
5.4233,11630.7
5.44449,11631.6
5.46564,11631.3
5.48673,11630.5
5.50802,11632.1
5.52907,11629.8
5.55026,11627.8
5.57145,11628.2
5.5926,11627.7
5.61379,11625.3
5.63503,11626.8
5.65613,11625.9
5.67727,11622.7
5.69846,11624.4
5.71961,11624.4
5.74075,11622
5.76199,11622.9
5.78309,11621.7
5.80428,11621.1
5.82547,11621.5
5.84661,11622.6
5.86776,11619.7
5.88904,11620.8
5.9101,11621.4
5.93129,11617.5
5.95243,11619.4
5.97358,11617
5.99477,11616.2
6.01601,11617.1
6.0371,11616.7
6.05825,11614.6
6.07953,11613.8
6.10063,11614.1
6.12178,11611.8
6.14297,11612.4
6.16407,11613.1
6.18526,11608.9
6.2065,11610.1
6.22764,11610.7
6.24874,11609.7
6.26998,11610.7
6.29108,11608.7
6.31227,11605.7
6.33346,11604.7
6.3546,11606.1
6.37575,11604.1
6.39703,11603.9
6.41813,11604.5
6.43928,11600.7
6.46047,11600.2
6.48161,11603
6.50276,11599.7
6.52395,11598.1
6.54509,11597.8
6.56628,11598.3
6.58748,11597.8
6.60862,11600.1
6.62976,11598.9
6.651,11594.1
6.6721,11596.6
6.69329,11595.2
6.71444,11592.6
6.73558,11593.6
6.75673,11591
6.77797,11590
6.79916,11590.7
6.82025,11588.6
6.84149,11588.4
6.86264,11586.7
6.88378,11586
6.90497,11583.7
6.92612,11586.2
6.94726,11584.3
6.96845,11581.2
6.9896,11583.9
7.01074,11583.6
7.03198,11581
7.05313,11581.7
7.07427,11580.7
7.09546,11576.9
7.11661,11576.8
7.13775,11576.8
7.15894,11573.8
7.18014,11577.3
7.20128,11574.1
7.22252,11570.3
7.24366,11572.3
7.26481,11570.2
7.28595,11570.2
7.30714,11570.3
7.32829,11569
7.34948,11565.5
7.37067,11565.7
7.39177,11567.9
7.41296,11564
7.43411,11564.5
7.4553,11563.1
7.47649,11561.5
7.49763,11562.1
7.51878,11561.4
7.53997,11558.8
7.56121,11557
7.58231,11558.9
7.6035,11556
7.62464,11556.2
7.64579,11555.9
7.66698,11550.3
7.68817,11551.8
7.70932,11552.9
7.73046,11549.2
7.75165,11551.3
7.7728,11550.6
7.79394,11548
7.81518,11547
7.83628,11547.5
7.85742,11544.2
7.87861,11543.4
7.89976,11542.9
7.921,11540.3
7.94219,11541.2
7.96329,11541.5
7.98448,11537.2
8.00562,11537
8.02681,11534.8
8.04796,11534.3
8.06915,11533.7
8.09025,11533.8
8.11144,11532
8.13268,11531.4
8.15382,11531.2
8.17497,11528.9
8.19616,11527.5
8.2173,11529.2
8.23849,11524.5
8.25969,11524
8.28083,11522.9
8.30193,11521.6
8.32317,11522.7
8.34431,11521.8
8.3655,11518.9
8.38669,11517.4
8.40784,11518
8.42894,11515.9
8.45017,11512.8
8.47132,11513.7
8.49246,11509.3
8.51366,11512.3
8.53485,11510.7
8.55599,11508.5
8.57718,11506
8.59833,11505.8
8.61952,11503.9
8.64066,11502.1
8.66186,11502.8
8.683,11501.3
8.70424,11498.1
8.72534,11498.9
8.74653,11497.1
8.76767,11497
8.78887,11494.9
8.81001,11493.7
8.8312,11490.7
8.85235,11490
8.87344,11489.6
8.89468,11487.9
8.91587,11486.7
8.93697,11486.2
8.95816,11483.6
8.97931,11482.1
9.0005,11480.5
9.02164,11480.4
9.04284,11478.8
9.06398,11476.3
9.08517,11476
9.10632,11473.5
9.12746,11473.9
9.14861,11470.4
9.16984,11469.4
9.19094,11469.9
9.21213,11467.1
9.23328,11464.4
9.25442,11463.4
9.27562,11461.1
9.29685,11461.3
9.31795,11461.7
9.33914,11459.4
9.36033,11455.3
9.38148,11455.8
9.40262,11453.6
9.42381,11450.5
9.44491,11452.5
9.46615,11448.8
9.4873,11447.2
9.50853,11446
9.52963,11444.4
9.55082,11442.3
9.57192,11442.4
9.59316,11439.7
9.6143,11435.7
9.63545,11434.7
9.65659,11435.1
9.67783,11432.7
9.69898,11433
9.72017,11428.5
9.74131,11426.8
9.7625,11425.8
9.7836,11425.4
9.80479,11422
9.82599,11418.7
9.84718,11418.5
9.86832,11415.4
9.88951,11416.2
9.91066,11412.9
9.93185,11407.3
9.95299,11409.9
9.97419,11405.6
9.99528,11403.6
10.0165,11404.2
10.0376,11402.3
10.0589,11398.5
10.08,11398.2
10.1011,11398.5
10.1223,11393.6
10.1435,11390.7
10.1646,11389.9
10.1858,11383.3
10.207,11385
10.2282,11382.8
10.2493,11380.5
10.2706,11380.4
10.2917,11375.8
10.3129,11372.5
10.334,11373.6
10.3552,11373
10.3763,11367.8
10.3975,11366.3
10.4186,11364.7
10.4399,11361.1
10.461,11362.4
10.4822,11359.1
10.5033,11353.7
10.5246,11352.5
10.5457,11350.1
10.5668,11346.6
10.588,11344.5
10.6092,11344.4
10.6304,11337.8
10.6516,11337.6
10.6727,11337
10.6939,11332.1
10.715,11330.5
10.7362,11327.5
10.7573,11324.6
10.7786,11323.1
10.7997,11321.3
10.8208,11317.6
10.8421,11316.4
10.8632,11313.4
10.8843,11308.9
10.9055,11307.1
10.9267,11306.9
10.9479,11301
10.9691,11298.1
10.9902,11295.7
11.0114,11289.7
11.0326,11290.2
11.0537,11287.5
11.0749,11283.7
11.0961,11281.1
11.1172,11276.3
11.1383,11274.7
11.1596,11270.9
11.1807,11268.4
11.2018,11264.3
11.2231,11262
11.2442,11259.1
11.2653,11253.9
11.2865,11252.1
11.3077,11249.5
11.3288,11244.4
11.35,11239.8
11.3712,11237
11.3923,11233.4
11.4136,11229
11.4347,11225.7
11.4559,11220
11.477,11217.1
11.4982,11216
11.5193,11211.1
11.5406,11207.1
11.5617,11201.9
11.5828,11197
11.6041,11193.7
11.6252,11190
11.6463,11186.7
11.6675,11179.3
11.6887,11175.2
11.7098,11169.7
11.731,11167.6
11.7522,11162.9
11.7734,11155.7
11.7945,11150.7
11.8157,11145.5
11.8368,11143.3
11.858,11136.8
11.8792,11131.6
11.9004,11126.5
11.9216,11120.5
11.9427,11116.5
11.9638,11111.9
11.985,11106.7
12.0062,11098
12.0274,11093.7
12.0485,11088.3
12.0697,11080.9
12.0909,11077.3
12.112,11070.4
12.1332,11061.2
12.1543,11056
12.1756,11049.4
12.1967,11042.8
12.2179,11037.4
12.2391,11028.8
12.2602,11022.1
12.2814,11016.8
12.3025,11009.8
12.3237,11000.8
12.3449,10995.3
12.3661,10986.1
12.3872,10977.5
12.4084,10972.5
12.4295,10963.3
12.4507,10951.9
12.4719,10947.8
12.4931,10938.7
12.5142,10929.3
12.5354,10920
12.5566,10912.2
12.5777,10901.7
12.5989,10896.8
12.6201,10886.6
12.6412,10875.3
12.6624,10868
12.6836,10859.8
12.7047,10846.8
12.7259,10840.1
12.7471,10831.5
12.7682,10819.5
12.7895,10808.6
12.8106,10799.7
12.8318,10786.9
12.8529,10779.1
12.8741,10768.3
12.8952,10754
12.9164,10744.5
12.9376,10734.1
12.9588,10721.2
12.98,10713.9
13.0011,10698.9
13.0223,10686.6
13.0434,10676
13.0646,10666.3
13.0857,10652.1
13.107,10641.1
13.1281,10630.4
13.1493,10613.4
13.1705,10604.6
13.1916,10593.1
13.2128,10575.3
13.234,10564.5
13.2552,10551.4
13.2763,10536.5
13.2975,10522.6
13.3186,10510.4
13.3398,10493.5
13.361,10481.4
13.3821,10468.4
13.4033,10450.2
13.4245,10437.2
13.4456,10424.7
13.4668,10405.4
13.488,10393.2
13.5091,10377.6
13.5302,10360.4
13.5515,10347.3
13.5726,10332.6
13.5938,10312
13.615,10297.2
13.6362,10282.9
13.6572,10261.1
13.6785,10246
13.6996,10230.2
13.7208,10208.9
13.742,10195.1
13.7632,10177.8
13.7843,10157.2
13.8056,10140.1
13.8267,10123.7
13.8478,10101.3
13.869,10083.9
13.8902,10067.3
13.9113,10043.7
13.9326,10024.9
13.9537,10008.1
13.9749,9983.73
13.9961,9965.13
14.0173,9945.13
14.0383,9921.75
14.0596,9901
14.0808,9882.13
14.1018,9857
14.1231,9836.62
14.1443,9818.07
14.1654,9791.35
14.1866,9767.38
14.2078,9748.54
14.2289,9723.96
14.2501,9700.38
14.2713,9676.62
14.2924,9648.97
14.3137,9625.09
14.3348,9603.43
14.3559,9574.83
14.3771,9547.11
14.3983,9522.47
14.4194,9495.62
14.4406,9466.3
14.4618,9442.12
14.4829,9410.94
14.5042,9383.64
14.5253,9356.18
14.5464,9326.72
14.5676,9296.79
14.5888,9268.89
14.6099,9237.4
14.6311,9203.4
14.6523,9175.82
14.6734,9141.22
14.6946,9108.14
14.7158,9078.06
14.7369,9040.31
14.7581,9005.81
14.7794,8973.21
14.8004,8936.56
14.8217,8899.75
14.8429,8862.49
14.864,8824.51
14.8852,8786.39
14.9064,8749.28
14.9275,8709.94
14.9488,8666.16
14.9699,8627.1
14.991,8584.46
15.0122,8541.06
15.0334,8497.79
15.0545,8450.37
15.0758,8406.6
15.097,8359.43
15.1181,8309.71
15.1392,8258.47
15.1605,8208.3
15.1815,8155.07
15.2028,8101.24
15.224,8049.33
15.2451,7991.22
15.2664,7936.46
15.2875,7874.31
15.3086,7812.8
15.3299,7749.52
15.351,7685.56
15.3721,7619.01
15.3934,7550.29
15.4145,7479.79
15.4356,7406.7
15.4569,7331.41
15.4781,7255.59
15.4993,7172.25
15.5204,7088.39
15.5417,7004.33
15.5627,6913.98
15.5839,6820.12
15.6051,6719.96
15.6263,6613
15.6475,6503.31
15.6687,6385.02
15.6898,6263.42
15.711,6128.55
15.7322,5988.54
15.7534,5834.11
15.7746,5655.31
15.7958,5458.53
15.8098,2755.46